"","Participant_ID","condition_str","sequence_type","color_name","trials_train.thisTrialN","signed_distance_idx","train_response_correct","train_response_distance_dE","train_response_distance_idx","cohort"
"1","FA23_1018","Light Far","original","yellow",0,-188,FALSE,86.3891300027859,188,"Fall"
"2","FA23_1018","Light Far","original","yellow",1,-38,FALSE,24.0488143175797,38,"Fall"
"3","FA23_1018","Light Far","original","purple",2,34,FALSE,17.430767246398,34,"Fall"
"4","FA23_1018","Light Far","original","violet",3,91,FALSE,40.7584589088309,91,"Fall"
"5","FA23_1018","Light Far","original","orange",4,-94,FALSE,46.1891862834468,94,"Fall"
"6","FA23_1018","Light Far","original","violet",5,13,FALSE,4.5271510456407,13,"Fall"
"7","FA23_1018","Light Far","original","orange",6,1,TRUE,0.583524781404395,1,"Fall"
"8","FA23_1018","Light Far","original","purple",7,40,FALSE,21.0228373650059,40,"Fall"
"9","FA23_1018","Light Far","original","violet",8,101,FALSE,46.507469325441,101,"Fall"
"10","FA23_1018","Light Far","original","yellow",9,-16,FALSE,10.6366799381062,16,"Fall"
"11","FA23_1018","Light Far","original","orange",10,-91,FALSE,45.3225791143922,91,"Fall"
"12","FA23_1018","Light Far","original","orange",11,35,FALSE,19.6516622062142,35,"Fall"
"13","FA23_1018","Light Far","original","yellow",12,-11,FALSE,7.3459214804893,11,"Fall"
"14","FA23_1018","Light Far","original","violet",13,120,FALSE,57.4105346085302,120,"Fall"
"15","FA23_1018","Light Far","original","purple",14,39,FALSE,20.4148928607052,39,"Fall"
"16","FA23_1018","Light Far","original","purple",15,19,FALSE,9.13277647876263,19,"Fall"
"17","FA23_1018","Light Far","original","violet",16,15,FALSE,5.26178428758741,15,"Fall"
"18","FA23_1018","Light Far","original","purple",17,4,TRUE,1.80821107832794,4,"Fall"
"19","FA23_1018","Light Far","original","purple",18,12,FALSE,5.60187065191152,12,"Fall"
"20","FA23_1018","Light Far","original","yellow",19,6,TRUE,3.88910631784857,6,"Fall"
"21","FA23_1018","Light Far","original","orange",20,-127,FALSE,53.7863218411256,127,"Fall"
"22","FA23_1018","Light Far","original","yellow",21,0,TRUE,0,0,"Fall"
"23","FA23_1018","Light Far","original","orange",22,25,FALSE,14.0216237785508,25,"Fall"
"24","FA23_1018","Light Far","original","violet",23,21,FALSE,7.52244368519231,21,"Fall"
"25","FA23_1018","Light Far","original","violet",24,30,FALSE,11.0678826660887,30,"Fall"
"26","FA23_1018","Light Far","original","orange",25,50,FALSE,28.5092155413094,50,"Fall"
"27","FA23_1018","Light Far","original","orange",26,80,FALSE,44.6235305279005,80,"Fall"
"28","FA23_1018","Light Far","original","purple",27,13,FALSE,6.09370141698882,13,"Fall"
"29","FA23_1018","Light Far","original","yellow",28,-3,TRUE,1.99651715410063,3,"Fall"
"30","FA23_1018","Light Far","original","violet",29,77,FALSE,32.9437243339246,77,"Fall"
"31","FA23_1018","Light Far","original","purple",30,6,TRUE,2.7338651982892,6,"Fall"
"32","FA23_1018","Light Far","original","yellow",31,-3,TRUE,1.99651715410063,3,"Fall"
"33","FA23_1018","Light Far","original","yellow",32,-3,TRUE,1.99651715410063,3,"Fall"
"34","FA23_1018","Light Far","original","purple",33,-33,FALSE,12.9907962711284,33,"Fall"
"35","FA23_1018","Light Far","original","purple",34,-51,FALSE,18.6868628558902,51,"Fall"
"36","FA23_1018","Light Far","original","violet",35,2,TRUE,0.667165467393161,2,"Fall"
"37","FA23_1018","Light Far","original","violet",36,2,TRUE,0.667165467393161,2,"Fall"
"38","FA23_1018","Light Far","original","orange",37,62,FALSE,36.0093708322898,62,"Fall"
"39","FA23_1018","Light Far","original","orange",38,-124,FALSE,53.2770797663716,124,"Fall"
"40","FA23_1018","Light Far","original","yellow",39,3,TRUE,1.96531583104478,3,"Fall"
"41","FA23_1018","Light Far","original","orange",40,56,FALSE,32.219590018881,56,"Fall"
"42","FA23_1018","Light Far","original","yellow",41,0,TRUE,0,0,"Fall"
"43","FA23_1018","Light Far","original","violet",42,61,FALSE,24.7640734003245,61,"Fall"
"44","FA23_1018","Light Far","original","purple",43,-72,FALSE,24.295929579726,72,"Fall"
"45","FA23_1018","Light Far","original","violet",44,39,FALSE,14.7968107460155,39,"Fall"
"46","FA23_1018","Light Far","original","purple",45,-22,FALSE,9.0205282233482,22,"Fall"
"47","FA23_1018","Light Far","original","orange",46,44,FALSE,24.8956977384101,44,"Fall"
"48","FA23_1018","Light Far","original","yellow",47,-5,TRUE,3.3347969309592,5,"Fall"
"49","FA23_1018","Light Far","original","yellow",48,-5,TRUE,3.3347969309592,5,"Fall"
"50","FA23_1018","Light Far","original","orange",49,24,FALSE,13.466825648227,24,"Fall"
"51","FA23_1018","Light Far","original","orange",50,12,FALSE,6.82413469960483,12,"Fall"
"52","FA23_1018","Light Far","original","violet",51,71,FALSE,29.7739400031272,71,"Fall"
"53","FA23_1018","Light Far","original","yellow",52,-5,TRUE,3.3347969309592,5,"Fall"
"54","FA23_1018","Light Far","original","purple",53,-42,FALSE,15.9694577404626,42,"Fall"
"55","FA23_1018","Light Far","original","purple",54,-61,FALSE,21.4034027477563,61,"Fall"
"56","FA23_1018","Light Far","original","violet",55,76,FALSE,32.4069006871187,76,"Fall"
"57","FA23_1018","Light Far","original","orange",56,22,FALSE,12.3581243916067,22,"Fall"
"58","FA23_1018","Light Far","original","yellow",57,-5,TRUE,3.3347969309592,5,"Fall"
"59","FA23_1018","Light Far","original","yellow",58,-5,TRUE,3.3347969309592,5,"Fall"
"60","FA23_1018","Light Far","original","violet",59,-11,FALSE,3.4741527236759,11,"Fall"
"61","FA23_1018","Light Far","original","purple",60,-69,FALSE,23.4811972070288,69,"Fall"
"62","FA23_1018","Light Far","original","violet",61,-32,FALSE,10.4814813500313,32,"Fall"
"63","FA23_1018","Light Far","original","orange",62,29,FALSE,16.2544447894114,29,"Fall"
"64","FA23_1018","Light Far","original","purple",63,-45,FALSE,16.9051719431026,45,"Fall"
"65","FA23_1018","Light Far","original","purple",64,-64,FALSE,22.1778874417882,64,"Fall"
"66","FA23_1018","Light Far","original","orange",65,7,FALSE,4.02252684943675,7,"Fall"
"67","FA23_1018","Light Far","original","yellow",66,-9,FALSE,6.01305828882443,9,"Fall"
"68","FA23_1018","Light Far","original","purple",67,-69,FALSE,23.4811972070288,69,"Fall"
"69","FA23_1018","Light Far","original","orange",68,-3,TRUE,1.77038144822811,3,"Fall"
"70","FA23_1018","Light Far","original","violet",69,28,FALSE,10.2642136533057,28,"Fall"
"71","FA23_1018","Light Far","original","yellow",70,-38,FALSE,24.0488143175797,38,"Fall"
"72","FA23_1018","Light Far","original","violet",71,-4,TRUE,1.30084925436631,4,"Fall"
"73","FA23_1018","Light Far","original","purple",72,-76,FALSE,25.4407948813343,76,"Fall"
"74","FA23_1018","Light Far","original","violet",73,-2,TRUE,0.656078327568269,2,"Fall"
"75","FA23_1018","Light Far","original","purple",74,16,FALSE,7.59409048890769,16,"Fall"
"76","FA23_1018","Light Far","original","violet",75,2,TRUE,0.667165467393161,2,"Fall"
"77","FA23_1018","Light Far","original","yellow",76,10,FALSE,5.75967155032789,10,"Fall"
"78","FA23_1018","Light Far","original","orange",77,35,FALSE,19.6516622062142,35,"Fall"
"79","FA23_1018","Light Far","original","orange",78,28,FALSE,15.6948298194222,28,"Fall"
"80","FA23_1018","Light Far","original","yellow",79,-11,FALSE,7.3459214804893,11,"Fall"
"81","FA23_1018","Light Far","original","orange",80,69,FALSE,40.4829828517351,69,"Fall"
"82","FA23_1018","Light Far","original","purple",81,3,TRUE,1.35084359684968,3,"Fall"
"83","FA23_1018","Light Far","original","yellow",82,-26,FALSE,16.9642816033727,26,"Fall"
"84","FA23_1018","Light Far","original","violet",83,-29,FALSE,9.26310552421568,29,"Fall"
"85","FA23_1018","Light Far","original","purple",84,-15,FALSE,6.31034962892959,15,"Fall"
"86","FA23_1018","Light Far","original","violet",85,45,FALSE,17.3883634097183,45,"Fall"
"87","FA23_1018","Light Far","original","orange",86,16,FALSE,9.04180083824631,16,"Fall"
"88","FA23_1018","Light Far","original","yellow",87,-3,TRUE,1.99651715410063,3,"Fall"
"89","FA23_1018","Light Far","original","violet",88,-14,FALSE,4.37410625758437,14,"Fall"
"90","FA23_1018","Light Far","original","purple",89,-13,FALSE,5.50942222064807,13,"Fall"
"91","FA23_1018","Light Far","original","yellow",90,3,TRUE,1.96531583104478,3,"Fall"
"92","FA23_1018","Light Far","original","violet",91,-28,FALSE,8.87922381044833,28,"Fall"
"93","FA23_1018","Light Far","original","orange",92,13,FALSE,7.37983318077952,13,"Fall"
"94","FA23_1018","Light Far","original","orange",93,3,TRUE,1.74122474033835,3,"Fall"
"95","FA23_1018","Light Far","original","purple",94,4,TRUE,1.80821107832794,4,"Fall"
"96","FA23_1018","Light Far","original","yellow",95,-3,TRUE,1.99651715410063,3,"Fall"
"97","FA23_1018","Light Far","original","orange",96,-3,TRUE,1.77038144822811,3,"Fall"
"98","FA23_1018","Light Far","original","violet",97,-14,FALSE,4.37410625758437,14,"Fall"
"99","FA23_1018","Light Far","original","purple",98,10,TRUE,4.63027536305798,10,"Fall"
"100","FA23_1018","Light Far","original","violet",99,-6,TRUE,1.93465491111231,6,"Fall"
"101","FA23_1018","Light Far","original","yellow",100,-10,FALSE,6.67800400195049,10,"Fall"
"102","FA23_1018","Light Far","original","orange",101,7,FALSE,4.02252684943675,7,"Fall"
"103","FA23_1018","Light Far","original","yellow",102,0,TRUE,0,0,"Fall"
"104","FA23_1018","Light Far","original","purple",103,13,FALSE,6.09370141698882,13,"Fall"
"105","FA23_1018","Light Far","original","violet",104,-12,FALSE,3.77554024420659,12,"Fall"
"106","FA23_1018","Light Far","original","violet",105,-2,TRUE,0.656078327568269,2,"Fall"
"107","FA23_1018","Light Far","original","purple",106,19,FALSE,9.13277647876263,19,"Fall"
"108","FA23_1018","Light Far","original","orange",107,3,TRUE,1.74122474033835,3,"Fall"
"109","FA23_1018","Light Far","original","yellow",108,-2,TRUE,1.3272432783232,2,"Fall"
"110","FA23_1018","Light Far","original","yellow",109,-3,TRUE,1.99651715410063,3,"Fall"
"111","FA23_1018","Light Far","original","orange",110,21,FALSE,11.804765675503,21,"Fall"
"112","FA23_1018","Light Far","original","purple",111,5,TRUE,2.26920171536078,5,"Fall"
"113","FA23_1018","Light Far","original","violet",112,-5,TRUE,1.61915345601561,5,"Fall"
"114","FA23_1018","Light Far","original","violet",113,-5,TRUE,1.61915345601561,5,"Fall"
"115","FA23_1018","Light Far","original","purple",114,20,FALSE,9.65439101085948,20,"Fall"
"116","FA23_1018","Light Far","original","yellow",115,-1,TRUE,0.66418132997817,1,"Fall"
"117","FA23_1018","Light Far","original","purple",116,21,FALSE,10.1804319348929,21,"Fall"
"118","FA23_1018","Light Far","original","yellow",117,-3,TRUE,1.99651715410063,3,"Fall"
"119","FA23_1018","Light Far","original","orange",118,8,FALSE,4.5866525584318,8,"Fall"
"120","FA23_1018","Light Far","original","orange",119,1,TRUE,0.583524781404395,1,"Fall"
"121","FA23_1018","Light Far","original","violet",120,-17,FALSE,5.26855326060142,17,"Fall"
"122","FA23_1018","Light Far","original","yellow",121,-2,TRUE,1.3272432783232,2,"Fall"
"123","FA23_1018","Light Far","original","violet",122,-30,FALSE,9.65816997461377,30,"Fall"
"124","FA23_1018","Light Far","original","orange",123,11,FALSE,6.26719127428969,11,"Fall"
"125","FA23_1018","Light Far","original","orange",124,-4,FALSE,2.36750217904499,4,"Fall"
"126","FA23_1018","Light Far","original","purple",125,2,TRUE,0.897050614930159,2,"Fall"
"127","FA23_1018","Light Far","original","purple",126,2,TRUE,0.897050614930159,2,"Fall"
"128","FA23_1018","Light Far","original","yellow",127,1,TRUE,0.657885287235583,1,"Fall"
"129","FA23_1018","Light Far","original","orange",128,-22,FALSE,13.429927683511,22,"Fall"
"130","FA23_1018","Light Far","original","violet",129,-22,FALSE,6.80246968351148,22,"Fall"
"131","FA23_1018","Light Far","original","purple",130,-1,TRUE,0.44334795913003,1,"Fall"
"132","FA23_1018","Light Far","original","purple",131,-1,TRUE,0.44334795913003,1,"Fall"
"133","FA23_1018","Light Far","original","orange",132,-23,FALSE,14.0405356030683,23,"Fall"
"134","FA23_1018","Light Far","original","yellow",133,-2,TRUE,1.3272432783232,2,"Fall"
"135","FA23_1018","Light Far","original","violet",134,-20,FALSE,6.17648837380334,20,"Fall"
"136","FA23_1018","Light Far","original","yellow",135,-3,TRUE,1.99651715410063,3,"Fall"
"137","FA23_1018","Light Far","original","violet",136,-2,TRUE,0.656078327568269,2,"Fall"
"138","FA23_1018","Light Far","original","orange",137,-20,FALSE,12.201539193594,20,"Fall"
"139","FA23_1018","Light Far","original","orange",138,-3,TRUE,1.77038144822811,3,"Fall"
"140","FA23_1018","Light Far","original","purple",139,-5,TRUE,2.18320856494515,5,"Fall"
"141","FA23_1018","Light Far","original","yellow",140,6,TRUE,3.88910631784857,6,"Fall"
"142","FA23_1018","Light Far","original","yellow",141,6,TRUE,3.88910631784857,6,"Fall"
"143","FA23_1018","Light Far","original","purple",142,-23,FALSE,9.39601889535883,23,"Fall"
"144","FA23_1018","Light Far","original","violet",143,-16,FALSE,4.97006384129086,16,"Fall"
"145","FA23_1018","Light Far","original","yellow",144,1,TRUE,0.657885287235583,1,"Fall"
"146","FA23_1018","Light Far","original","violet",145,-29,FALSE,9.26310552421568,29,"Fall"
"147","FA23_1018","Light Far","original","yellow",146,-3,TRUE,1.99651715410063,3,"Fall"
"148","FA23_1018","Light Far","original","orange",147,-16,FALSE,9.72624340649065,16,"Fall"
"149","FA23_1018","Light Far","original","orange",148,5,FALSE,2.88717837900862,5,"Fall"
"150","FA23_1018","Light Far","original","purple",149,-4,TRUE,1.75319369418815,4,"Fall"
"151","FA23_1018","Light Far","original","violet",150,-16,FALSE,4.97006384129086,16,"Fall"
"152","FA23_1018","Light Far","original","purple",151,5,TRUE,2.26920171536078,5,"Fall"
"153","FA23_1018","Light Far","original","purple",152,4,TRUE,1.80821107832794,4,"Fall"
"154","FA23_1018","Light Far","original","orange",153,-9,FALSE,5.39842433488564,9,"Fall"
"155","FA23_1018","Light Far","original","purple",154,-3,TRUE,1.31990434541868,3,"Fall"
"156","FA23_1018","Light Far","original","yellow",155,-7,FALSE,4.6749024913049,7,"Fall"
"157","FA23_1018","Light Far","original","violet",156,-31,FALSE,10.0647433299118,31,"Fall"
"158","FA23_1018","Light Far","original","orange",157,-16,FALSE,9.72624340649065,16,"Fall"
"159","FA23_1018","Light Far","original","yellow",158,2,TRUE,1.31462534419722,2,"Fall"
"160","FA23_1018","Light Far","original","violet",159,11,FALSE,3.8022941809984,11,"Fall"
"161","FA23_1018","Light Far","original","yellow",160,7,FALSE,4.51979256221399,7,"Fall"
"162","FA23_1018","Light Far","original","yellow",161,-7,FALSE,4.6749024913049,7,"Fall"
"163","FA23_1018","Light Far","original","violet",162,16,FALSE,5.63270479716113,16,"Fall"
"164","FA23_1018","Light Far","original","violet",163,1,TRUE,0.332249037881992,1,"Fall"
"165","FA23_1018","Light Far","original","orange",164,-16,FALSE,9.72624340649065,16,"Fall"
"166","FA23_1018","Light Far","original","purple",165,1,TRUE,0.446784739046279,1,"Fall"
"167","FA23_1018","Light Far","original","purple",166,1,TRUE,0.446784739046279,1,"Fall"
"168","FA23_1018","Light Far","original","orange",167,10,FALSE,5.70877572563385,10,"Fall"
"169","FA23_1018","Light Far","original","yellow",168,0,TRUE,0,0,"Fall"
"170","FA23_1018","Light Far","original","orange",169,9,FALSE,5.14866729580578,9,"Fall"
"171","FA23_1018","Light Far","original","orange",170,21,FALSE,11.804765675503,21,"Fall"
"172","FA23_1018","Light Far","original","purple",171,-5,TRUE,2.18320856494515,5,"Fall"
"173","FA23_1018","Light Far","original","yellow",172,-6,TRUE,4.00254600606027,6,"Fall"
"174","FA23_1018","Light Far","original","purple",173,-23,FALSE,9.39601889535883,23,"Fall"
"175","FA23_1018","Light Far","original","violet",174,-10,FALSE,3.1707851043467,10,"Fall"
"176","FA23_1018","Light Far","original","violet",175,2,TRUE,0.667165467393161,2,"Fall"
"177","FA23_1018","Light Far","original","orange",176,29,FALSE,16.2544447894114,29,"Fall"
"178","FA23_1018","Light Far","original","violet",177,-8,TRUE,2.55769969257705,8,"Fall"
"179","FA23_1018","Light Far","original","yellow",178,-3,TRUE,1.99651715410063,3,"Fall"
"180","FA23_1018","Light Far","original","purple",179,-12,FALSE,5.10444835329095,12,"Fall"
"181","FA23_1018","Light Far","original","orange",180,-34,FALSE,20.5283353201865,34,"Fall"
"182","FA23_1018","Light Far","original","violet",181,-11,FALSE,3.4741527236759,11,"Fall"
"183","FA23_1018","Light Far","original","yellow",182,-1,TRUE,0.66418132997817,1,"Fall"
"184","FA23_1018","Light Far","original","purple",183,8,TRUE,3.67441469798969,8,"Fall"
"185","FA23_1018","Light Far","original","purple",184,8,TRUE,3.67441469798969,8,"Fall"
"186","FA23_1018","Light Far","original","orange",185,5,FALSE,2.88717837900862,5,"Fall"
"187","FA23_1018","Light Far","original","yellow",186,7,FALSE,4.51979256221399,7,"Fall"
"188","FA23_1018","Light Far","original","purple",187,-5,TRUE,2.18320856494515,5,"Fall"
"189","FA23_1018","Light Far","original","orange",188,4,TRUE,2.31560526461955,4,"Fall"
"190","FA23_1018","Light Far","original","violet",189,-3,TRUE,0.979846848708749,3,"Fall"
"191","FA23_1018","Light Far","original","violet",190,-4,TRUE,1.30084925436631,4,"Fall"
"192","FA23_1018","Light Far","original","yellow",191,-2,TRUE,1.3272432783232,2,"Fall"
"193","FA23_1018","Light Far","original","yellow",192,-2,TRUE,1.3272432783232,2,"Fall"
"194","FA23_1018","Light Far","original","purple",193,-5,TRUE,2.18320856494515,5,"Fall"
"195","FA23_1018","Light Far","original","orange",194,21,FALSE,11.804765675503,21,"Fall"
"196","FA23_1018","Light Far","original","purple",195,-11,TRUE,4.69643961893506,11,"Fall"
"197","FA23_1018","Light Far","original","yellow",196,-5,TRUE,3.3347969309592,5,"Fall"
"198","FA23_1018","Light Far","original","orange",197,6,FALSE,3.45609619211873,6,"Fall"
"199","FA23_1018","Light Far","original","violet",198,-8,TRUE,2.55769969257705,8,"Fall"
"200","FA23_1018","Light Far","original","violet",199,-8,TRUE,2.55769969257705,8,"Fall"
"201","FA23_1018","Light Far","original","yellow",200,-3,TRUE,1.99651715410063,3,"Fall"
"202","FA23_1018","Light Far","original","yellow",201,-3,TRUE,1.99651715410063,3,"Fall"
"203","FA23_1018","Light Far","original","purple",202,-1,TRUE,0.44334795913003,1,"Fall"
"204","FA23_1018","Light Far","original","violet",203,-1,TRUE,0.329459377156701,1,"Fall"
"205","FA23_1018","Light Far","original","orange",204,-2,TRUE,1.17673040661517,2,"Fall"
"206","FA23_1018","Light Far","original","violet",205,-6,TRUE,1.93465491111231,6,"Fall"
"207","FA23_1018","Light Far","original","purple",206,-5,TRUE,2.18320856494515,5,"Fall"
"208","FA23_1018","Light Far","original","orange",207,-3,TRUE,1.77038144822811,3,"Fall"
"209","FA23_1018","Light Far","original","orange",208,-6,FALSE,3.57104964897219,6,"Fall"
"210","FA23_1018","Light Far","original","orange",209,1,TRUE,0.583524781404395,1,"Fall"
"211","FA23_1018","Light Far","original","purple",210,0,TRUE,0,0,"Fall"
"212","FA23_1018","Light Far","original","yellow",211,-5,TRUE,3.3347969309592,5,"Fall"
"213","FA23_1018","Light Far","original","violet",212,-16,FALSE,4.97006384129086,16,"Fall"
"214","FA23_1018","Light Far","original","purple",213,-20,FALSE,8.26082782960891,20,"Fall"
"215","FA23_1018","Light Far","original","yellow",214,2,TRUE,1.31462534419722,2,"Fall"
"216","FA23_1018","Light Far","original","violet",215,-9,FALSE,2.86545486299818,9,"Fall"
"217","FA23_1018","Light Far","original","violet",216,-22,FALSE,6.80246968351148,22,"Fall"
"218","FA23_1018","Light Far","original","purple",217,-7,TRUE,3.03355798079672,7,"Fall"
"219","FA23_1018","Light Far","original","orange",218,-4,FALSE,2.36750217904499,4,"Fall"
"220","FA23_1018","Light Far","original","yellow",219,6,TRUE,3.88910631784857,6,"Fall"
"221","FA23_1018","Light Far","original","purple",220,4,TRUE,1.80821107832794,4,"Fall"
"222","FA23_1018","Light Far","original","orange",221,-5,FALSE,2.96775842103851,5,"Fall"
"223","FA23_1018","Light Far","original","yellow",222,5,TRUE,3.25390275589663,5,"Fall"
"224","FA23_1018","Light Far","original","violet",223,-23,FALSE,7.12521815314653,23,"Fall"
"225","FA23_1018","Light Far","original","orange",224,-18,FALSE,10.9660851629446,18,"Fall"
"226","FA23_1018","Light Far","original","purple",225,-15,FALSE,6.31034962892959,15,"Fall"
"227","FA23_1018","Light Far","original","yellow",226,8,FALSE,5.14134717143706,8,"Fall"
"228","FA23_1018","Light Far","original","orange",227,-10,FALSE,6.0124896225185,10,"Fall"
"229","FA23_1018","Light Far","original","violet",228,-26,FALSE,8.14609535885522,26,"Fall"
"230","FA23_1018","Light Far","original","violet",229,-1,TRUE,0.329459377156701,1,"Fall"
"231","FA23_1018","Light Far","original","yellow",230,-1,TRUE,0.66418132997817,1,"Fall"
"232","FA23_1018","Light Far","original","purple",231,-10,TRUE,4.28537248002648,10,"Fall"
"233","FA23_1018","Light Far","original","purple",232,-10,TRUE,4.28537248002648,10,"Fall"
"234","FA23_1018","Light Far","original","orange",233,-20,FALSE,12.201539193594,20,"Fall"
"235","FA23_1018","Light Far","original","purple",234,-18,FALSE,7.48945491190652,18,"Fall"
"236","FA23_1018","Light Far","original","yellow",235,1,TRUE,0.657885287235583,1,"Fall"
"237","FA23_1018","Light Far","original","yellow",236,-8,FALSE,5.34215860103764,8,"Fall"
"238","FA23_1018","Light Far","original","violet",237,-20,FALSE,6.17648837380334,20,"Fall"
"239","FA23_1018","Light Far","original","orange",238,-17,FALSE,10.3464885153762,17,"Fall"
"240","FA23_1018","Light Far","original","violet",239,-7,TRUE,2.2474031639334,7,"Fall"
"241","FA23_1018","Light Far","original","yellow",240,-2,TRUE,1.3272432783232,2,"Fall"
"242","FA23_1018","Light Far","original","violet",241,-5,TRUE,1.61915345601561,5,"Fall"
"243","FA23_1018","Light Far","original","violet",242,-6,TRUE,1.93465491111231,6,"Fall"
"244","FA23_1018","Light Far","original","yellow",243,-6,TRUE,4.00254600606027,6,"Fall"
"245","FA23_1018","Light Far","original","purple",244,-1,TRUE,0.44334795913003,1,"Fall"
"246","FA23_1018","Light Far","original","orange",245,-23,FALSE,14.0405356030683,23,"Fall"
"247","FA23_1018","Light Far","original","purple",246,-1,TRUE,0.44334795913003,1,"Fall"
"248","FA23_1018","Light Far","original","orange",247,1,TRUE,0.583524781404395,1,"Fall"
"249","FA23_1018","Light Far","original","purple",248,-5,TRUE,2.18320856494515,5,"Fall"
"250","FA23_1018","Light Far","original","orange",249,1,TRUE,0.583524781404395,1,"Fall"
"251","FA23_1018","Light Far","original","violet",250,-13,FALSE,4.07538548350744,13,"Fall"
"252","FA23_1018","Light Far","original","purple",251,-6,TRUE,2.60998512214765,6,"Fall"
"253","FA23_1018","Light Far","original","violet",252,-6,TRUE,1.93465491111231,6,"Fall"
"254","FA23_1018","Light Far","original","yellow",253,-6,TRUE,4.00254600606027,6,"Fall"
"255","FA23_1018","Light Far","original","yellow",254,-7,FALSE,4.6749024913049,7,"Fall"
"256","FA23_1018","Light Far","original","orange",255,1,TRUE,0.583524781404395,1,"Fall"
"257","FA23_1018","Light Far","original","yellow",256,-13,FALSE,8.67062959645603,13,"Fall"
"258","FA23_1018","Light Far","original","orange",257,-7,FALSE,4.17724223582447,7,"Fall"
"259","FA23_1018","Light Far","original","yellow",258,1,TRUE,0.657885287235583,1,"Fall"
"260","FA23_1018","Light Far","original","purple",259,-19,FALSE,7.87660394242586,19,"Fall"
"261","FA23_1018","Light Far","original","orange",260,-3,TRUE,1.77038144822811,3,"Fall"
"262","FA23_1018","Light Far","original","violet",261,-21,FALSE,6.48664065814832,21,"Fall"
"263","FA23_1018","Light Far","original","violet",262,-8,TRUE,2.55769969257705,8,"Fall"
"264","FA23_1018","Light Far","original","purple",263,5,TRUE,2.26920171536078,5,"Fall"
"265","FA23_1018","Light Far","original","yellow",264,-1,TRUE,0.66418132997817,1,"Fall"
"266","FA23_1018","Light Far","original","purple",265,-15,FALSE,6.31034962892959,15,"Fall"
"267","FA23_1018","Light Far","original","violet",266,-5,TRUE,1.61915345601561,5,"Fall"
"268","FA23_1018","Light Far","original","yellow",267,1,TRUE,0.657885287235583,1,"Fall"
"269","FA23_1018","Light Far","original","orange",268,-2,TRUE,1.17673040661517,2,"Fall"
"270","FA23_1018","Light Far","original","orange",269,-1,TRUE,0.586738372459232,1,"Fall"
"271","FA23_1018","Light Far","original","purple",270,-12,FALSE,5.10444835329095,12,"Fall"
"272","FA23_1018","Light Far","original","violet",271,-3,TRUE,0.979846848708749,3,"Fall"
"273","FA23_1018","Light Far","original","orange",272,-1,TRUE,0.586738372459232,1,"Fall"
"274","FA23_1018","Light Far","original","orange",273,-1,TRUE,0.586738372459232,1,"Fall"
"275","FA23_1018","Light Far","original","yellow",274,-2,TRUE,1.3272432783232,2,"Fall"
"276","FA23_1018","Light Far","original","violet",275,-4,TRUE,1.30084925436631,4,"Fall"
"277","FA23_1018","Light Far","original","yellow",276,-1,TRUE,0.66418132997817,1,"Fall"
"278","FA23_1018","Light Far","original","purple",277,-9,TRUE,3.87122166057261,9,"Fall"
"279","FA23_1018","Light Far","original","purple",278,-9,TRUE,3.87122166057261,9,"Fall"
"280","FA23_1018","Light Far","original","violet",279,5,TRUE,1.68847397976124,5,"Fall"
"281","FA23_1018","Light Far","original","orange",280,-5,FALSE,2.96775842103851,5,"Fall"
"282","FA23_1018","Light Far","original","yellow",281,-15,FALSE,9.98481049001403,15,"Fall"
"283","FA23_1018","Light Far","original","orange",282,4,TRUE,2.31560526461955,4,"Fall"
"284","FA23_1018","Light Far","original","purple",283,6,TRUE,2.7338651982892,6,"Fall"
"285","FA23_1018","Light Far","original","violet",284,-10,FALSE,3.1707851043467,10,"Fall"
"286","FA23_1018","Light Far","original","violet",285,3,TRUE,1.00486225630451,3,"Fall"
"287","FA23_1018","Light Far","original","purple",286,8,TRUE,3.67441469798969,8,"Fall"
"288","FA23_1019","Dark Far","original","yellow",0,-84,FALSE,45.461787360855,84,"Fall"
"289","FA23_1019","Dark Far","original","yellow",1,-154,FALSE,13.9636545552751,154,"Fall"
"290","FA23_1019","Dark Far","original","purple",2,-27,FALSE,47.9302239850253,27,"Fall"
"291","FA23_1019","Dark Far","original","violet",3,-16,FALSE,78.4176393892713,16,"Fall"
"292","FA23_1019","Dark Far","original","orange",4,30,FALSE,48.0646520864118,30,"Fall"
"293","FA23_1019","Dark Far","original","violet",5,-26,FALSE,80.8718611748979,26,"Fall"
"294","FA23_1019","Dark Far","original","orange",6,75,FALSE,68.3322527446506,75,"Fall"
"295","FA23_1019","Dark Far","original","purple",7,-29,FALSE,48.5066801062706,29,"Fall"
"296","FA23_1019","Dark Far","original","violet",8,-46,FALSE,80.72231599444,46,"Fall"
"297","FA23_1019","Dark Far","original","yellow",9,-31,FALSE,75.62177492675,31,"Fall"
"298","FA23_1019","Dark Far","original","orange",10,59,FALSE,61.119590208485,59,"Fall"
"299","FA23_1019","Dark Far","original","orange",11,69,FALSE,65.6719586806064,69,"Fall"
"300","FA23_1019","Dark Far","original","yellow",12,-9,FALSE,86.4413458482515,9,"Fall"
"301","FA23_1019","Dark Far","original","violet",13,2,TRUE,71.4139363665722,2,"Fall"
"302","FA23_1019","Dark Far","original","purple",14,-14,FALSE,43.6971349486163,14,"Fall"
"303","FA23_1019","Dark Far","original","purple",15,1,TRUE,37.6216843283351,1,"Fall"
"304","FA23_1019","Dark Far","original","violet",16,-1,TRUE,72.6386645455905,1,"Fall"
"305","FA23_1019","Dark Far","original","purple",17,-2,TRUE,38.9248653119495,2,"Fall"
"306","FA23_1019","Dark Far","original","purple",18,-2,TRUE,38.9248653119495,2,"Fall"
"307","FA23_1019","Dark Far","original","yellow",19,-6,TRUE,87.5037786875352,6,"Fall"
"308","FA23_1019","Dark Far","original","orange",20,88,FALSE,61.4672940203733,88,"Fall"
"309","FA23_1019","Dark Far","original","yellow",21,-3,TRUE,88.5302323793866,3,"Fall"
"310","FA23_1019","Dark Far","original","orange",22,37,FALSE,51.1395058712672,37,"Fall"
"311","FA23_1019","Dark Far","original","violet",23,5,TRUE,70.1951056496982,5,"Fall"
"312","FA23_1019","Dark Far","original","violet",24,9,FALSE,68.5864629609459,9,"Fall"
"313","FA23_1019","Dark Far","original","orange",25,0,TRUE,34.233527836524,0,"Fall"
"314","FA23_1019","Dark Far","original","orange",26,0,TRUE,34.233527836524,0,"Fall"
"315","FA23_1019","Dark Far","original","purple",27,-14,FALSE,43.6971349486163,14,"Fall"
"316","FA23_1019","Dark Far","original","yellow",28,3,TRUE,90.5166340400219,3,"Fall"
"317","FA23_1019","Dark Far","original","violet",29,-3,TRUE,73.454885804489,3,"Fall"
"318","FA23_1019","Dark Far","original","purple",30,4,TRUE,36.2836493165983,4,"Fall"
"319","FA23_1019","Dark Far","original","yellow",31,6,TRUE,91.4813205690901,6,"Fall"
"320","FA23_1019","Dark Far","original","yellow",32,4,TRUE,90.8403540429104,4,"Fall"
"321","FA23_1019","Dark Far","original","purple",33,2,TRUE,37.1793909955221,2,"Fall"
"322","FA23_1019","Dark Far","original","purple",34,2,TRUE,37.1793909955221,2,"Fall"
"323","FA23_1019","Dark Far","original","violet",35,3,TRUE,71.0067322607959,3,"Fall"
"324","FA23_1019","Dark Far","original","violet",36,4,TRUE,70.6004026601964,4,"Fall"
"325","FA23_1019","Dark Far","original","orange",37,26,FALSE,46.3188935157052,26,"Fall"
"326","FA23_1019","Dark Far","original","orange",38,0,TRUE,34.233527836524,0,"Fall"
"327","FA23_1019","Dark Far","original","yellow",39,0,TRUE,89.5338187281965,0,"Fall"
"328","FA23_1019","Dark Far","original","orange",40,-6,FALSE,30.9331490015393,6,"Fall"
"329","FA23_1019","Dark Far","original","yellow",41,-1,TRUE,89.2012543401193,1,"Fall"
"330","FA23_1019","Dark Far","original","violet",42,6,TRUE,69.7909698500822,6,"Fall"
"331","FA23_1019","Dark Far","original","purple",43,-4,TRUE,39.7723438463716,4,"Fall"
"332","FA23_1019","Dark Far","original","violet",44,2,TRUE,71.4139363665722,2,"Fall"
"333","FA23_1019","Dark Far","original","purple",45,6,TRUE,35.3735182939421,6,"Fall"
"334","FA23_1019","Dark Far","original","orange",46,21,FALSE,44.13134056423,21,"Fall"
"335","FA23_1019","Dark Far","original","yellow",47,1,TRUE,89.8631499059216,1,"Fall"
"336","FA23_1019","Dark Far","original","yellow",48,-1,TRUE,89.2012543401193,1,"Fall"
"337","FA23_1019","Dark Far","original","orange",49,18,FALSE,42.807612900814,18,"Fall"
"338","FA23_1019","Dark Far","original","orange",50,33,FALSE,49.3774849526221,33,"Fall"
"339","FA23_1019","Dark Far","original","violet",51,-2,TRUE,73.047029572015,2,"Fall"
"340","FA23_1019","Dark Far","original","yellow",52,6,TRUE,91.4813205690901,6,"Fall"
"341","FA23_1019","Dark Far","original","purple",53,-4,TRUE,39.7723438463716,4,"Fall"
"342","FA23_1019","Dark Far","original","purple",54,-2,TRUE,38.9248653119495,2,"Fall"
"343","FA23_1019","Dark Far","original","violet",55,-5,TRUE,74.2672480807463,5,"Fall"
"344","FA23_1019","Dark Far","original","orange",56,-10,FALSE,28.5842226667789,10,"Fall"
"345","FA23_1019","Dark Far","original","yellow",57,-1,TRUE,89.2012543401193,1,"Fall"
"346","FA23_1019","Dark Far","original","yellow",58,5,TRUE,91.1619642116629,5,"Fall"
"347","FA23_1019","Dark Far","original","violet",59,-11,FALSE,76.6333141977684,11,"Fall"
"348","FA23_1019","Dark Far","original","purple",60,-10,TRUE,42.1955353550034,10,"Fall"
"349","FA23_1019","Dark Far","original","violet",61,-10,FALSE,76.2509054439501,10,"Fall"
"350","FA23_1019","Dark Far","original","orange",62,-26,FALSE,18.7012123167051,26,"Fall"
"351","FA23_1019","Dark Far","original","purple",63,-11,TRUE,42.5799794153654,11,"Fall"
"352","FA23_1019","Dark Far","original","purple",64,-11,TRUE,42.5799794153654,11,"Fall"
"353","FA23_1019","Dark Far","original","orange",65,0,TRUE,34.233527836524,0,"Fall"
"354","FA23_1019","Dark Far","original","yellow",66,3,TRUE,90.5166340400219,3,"Fall"
"355","FA23_1019","Dark Far","original","purple",67,-4,TRUE,39.7723438463716,4,"Fall"
"356","FA23_1019","Dark Far","original","orange",68,6,FALSE,37.2694076666207,6,"Fall"
"357","FA23_1019","Dark Far","original","violet",69,-17,FALSE,78.7403832305974,17,"Fall"
"358","FA23_1019","Dark Far","original","yellow",70,6,TRUE,91.4813205690901,6,"Fall"
"359","FA23_1019","Dark Far","original","violet",71,-4,TRUE,73.8617940002091,4,"Fall"
"360","FA23_1019","Dark Far","original","purple",72,-11,TRUE,42.5799794153654,11,"Fall"
"361","FA23_1019","Dark Far","original","violet",73,-13,FALSE,77.3761792568425,13,"Fall"
"362","FA23_1019","Dark Far","original","purple",74,-8,TRUE,41.4092849979776,8,"Fall"
"363","FA23_1019","Dark Far","original","violet",75,-5,TRUE,74.2672480807463,5,"Fall"
"364","FA23_1019","Dark Far","original","yellow",76,9,FALSE,92.4284658755151,9,"Fall"
"365","FA23_1019","Dark Far","original","orange",77,26,FALSE,46.3188935157052,26,"Fall"
"366","FA23_1019","Dark Far","original","orange",78,13,FALSE,40.5600767487248,13,"Fall"
"367","FA23_1019","Dark Far","original","yellow",79,7,FALSE,91.7992108380804,7,"Fall"
"368","FA23_1019","Dark Far","original","orange",80,8,FALSE,38.2325253332245,8,"Fall"
"369","FA23_1019","Dark Far","original","purple",81,-13,FALSE,43.3308608804435,13,"Fall"
"370","FA23_1019","Dark Far","original","yellow",82,4,TRUE,90.8403540429104,4,"Fall"
"371","FA23_1019","Dark Far","original","violet",83,-13,FALSE,77.3761792568425,13,"Fall"
"372","FA23_1019","Dark Far","original","purple",84,-10,TRUE,42.1955353550034,10,"Fall"
"373","FA23_1019","Dark Far","original","violet",85,2,TRUE,71.4139363665722,2,"Fall"
"374","FA23_1019","Dark Far","original","orange",86,-13,FALSE,26.7613321066222,13,"Fall"
"375","FA23_1019","Dark Far","original","yellow",87,12,FALSE,91.3205620331276,12,"Fall"
"376","FA23_1019","Dark Far","original","violet",88,-6,TRUE,74.670720497331,6,"Fall"
"377","FA23_1019","Dark Far","original","purple",89,-12,FALSE,42.9584541533571,12,"Fall"
"378","FA23_1019","Dark Far","original","yellow",90,2,TRUE,90.1912331843525,2,"Fall"
"379","FA23_1019","Dark Far","original","violet",91,-2,TRUE,73.047029572015,2,"Fall"
"380","FA23_1019","Dark Far","original","orange",92,14,FALSE,41.0146535730846,14,"Fall"
"381","FA23_1019","Dark Far","original","orange",93,24,FALSE,45.4460091282087,24,"Fall"
"382","FA23_1019","Dark Far","original","purple",94,-23,FALSE,46.7240643614569,23,"Fall"
"383","FA23_1019","Dark Far","original","yellow",95,15,FALSE,89.5432707416082,15,"Fall"
"384","FA23_1019","Dark Far","original","orange",96,-31,FALSE,15.6956519748139,31,"Fall"
"385","FA23_1019","Dark Far","original","violet",97,-12,FALSE,77.0087968244567,12,"Fall"
"386","FA23_1019","Dark Far","original","purple",98,-19,FALSE,45.4367642973944,19,"Fall"
"387","FA23_1019","Dark Far","original","violet",99,0,TRUE,72.2301575286545,0,"Fall"
"388","FA23_1019","Dark Far","original","yellow",100,17,FALSE,88.2767635026227,17,"Fall"
"389","FA23_1019","Dark Far","original","orange",101,22,FALSE,44.5703762157464,22,"Fall"
"390","FA23_1019","Dark Far","original","yellow",102,18,FALSE,87.6177372771789,18,"Fall"
"391","FA23_1019","Dark Far","original","purple",103,-5,TRUE,40.1891372501914,5,"Fall"
"392","FA23_1019","Dark Far","original","violet",104,5,TRUE,70.1951056496982,5,"Fall"
"393","FA23_1019","Dark Far","original","violet",105,7,TRUE,69.3880976391559,7,"Fall"
"394","FA23_1019","Dark Far","original","purple",106,-18,FALSE,45.1008729537265,18,"Fall"
"395","FA23_1019","Dark Far","original","orange",107,23,FALSE,45.0087997821031,23,"Fall"
"396","FA23_1019","Dark Far","original","yellow",108,16,FALSE,88.9184607910229,16,"Fall"
"397","FA23_1019","Dark Far","original","yellow",109,2,TRUE,90.1912331843525,2,"Fall"
"398","FA23_1019","Dark Far","original","orange",110,-10,FALSE,28.5842226667789,10,"Fall"
"399","FA23_1019","Dark Far","original","purple",111,-6,TRUE,40.6010292324377,6,"Fall"
"400","FA23_1019","Dark Far","original","violet",112,7,TRUE,69.3880976391559,7,"Fall"
"401","FA23_1019","Dark Far","original","violet",113,5,TRUE,70.1951056496982,5,"Fall"
"402","FA23_1019","Dark Far","original","purple",114,1,TRUE,37.6216843283351,1,"Fall"
"403","FA23_1019","Dark Far","original","yellow",115,14,FALSE,90.1516182269322,14,"Fall"
"404","FA23_1019","Dark Far","original","purple",116,-10,TRUE,42.1955353550034,10,"Fall"
"405","FA23_1019","Dark Far","original","yellow",117,-2,TRUE,88.8676573506764,2,"Fall"
"406","FA23_1019","Dark Far","original","orange",118,27,FALSE,46.7556179018636,27,"Fall"
"407","FA23_1019","Dark Far","original","orange",119,1,TRUE,34.7566300814818,1,"Fall"
"408","FA23_1019","Dark Far","original","violet",120,2,TRUE,71.4139363665722,2,"Fall"
"409","FA23_1019","Dark Far","original","yellow",121,5,TRUE,91.1619642116629,5,"Fall"
"410","FA23_1019","Dark Far","original","violet",122,-4,TRUE,73.8617940002091,4,"Fall"
"411","FA23_1019","Dark Far","original","orange",123,-9,FALSE,29.1812803117132,9,"Fall"
"412","FA23_1019","Dark Far","original","orange",124,4,TRUE,36.2836493165983,4,"Fall"
"413","FA23_1019","Dark Far","original","purple",125,-14,FALSE,43.6971349486163,14,"Fall"
"414","FA23_1019","Dark Far","original","purple",126,-21,FALSE,46.0913298698518,21,"Fall"
"415","FA23_1019","Dark Far","original","yellow",127,7,FALSE,91.7992108380804,7,"Fall"
"416","FA23_1019","Dark Far","original","orange",128,-1,TRUE,33.7029778467497,1,"Fall"
"417","FA23_1019","Dark Far","original","violet",129,-8,TRUE,75.4690801538233,8,"Fall"
"418","FA23_1019","Dark Far","original","purple",130,-23,FALSE,46.7240643614569,23,"Fall"
"419","FA23_1019","Dark Far","original","purple",131,-6,TRUE,40.6010292324377,6,"Fall"
"420","FA23_1019","Dark Far","original","orange",132,3,TRUE,35.7814125699222,3,"Fall"
"421","FA23_1019","Dark Far","original","yellow",133,10,FALSE,92.4284658755151,10,"Fall"
"422","FA23_1019","Dark Far","original","violet",134,-6,TRUE,74.670720497331,6,"Fall"
"423","FA23_1019","Dark Far","original","yellow",135,-1,TRUE,89.2012543401193,1,"Fall"
"424","FA23_1019","Dark Far","original","violet",136,-5,TRUE,74.2672480807463,5,"Fall"
"425","FA23_1019","Dark Far","original","orange",137,3,TRUE,35.7814125699222,3,"Fall"
"426","FA23_1019","Dark Far","original","orange",138,-2,TRUE,33.1648104876768,2,"Fall"
"427","FA23_1019","Dark Far","original","purple",139,-2,TRUE,38.9248653119495,2,"Fall"
"428","FA23_1019","Dark Far","original","yellow",140,3,TRUE,90.5166340400219,3,"Fall"
"429","FA23_1019","Dark Far","original","yellow",141,3,TRUE,90.5166340400219,3,"Fall"
"430","FA23_1019","Dark Far","original","purple",142,-16,FALSE,44.4112069660632,16,"Fall"
"431","FA23_1019","Dark Far","original","violet",143,3,TRUE,71.0067322607959,3,"Fall"
"432","FA23_1019","Dark Far","original","yellow",144,2,TRUE,90.1912331843525,2,"Fall"
"433","FA23_1019","Dark Far","original","violet",145,9,FALSE,68.5864629609459,9,"Fall"
"434","FA23_1019","Dark Far","original","yellow",146,-4,TRUE,88.1916820447972,4,"Fall"
"435","FA23_1019","Dark Far","original","orange",147,1,TRUE,34.7566300814818,1,"Fall"
"436","FA23_1019","Dark Far","original","orange",148,3,TRUE,35.7814125699222,3,"Fall"
"437","FA23_1019","Dark Far","original","purple",149,1,TRUE,37.6216843283351,1,"Fall"
"438","FA23_1019","Dark Far","original","violet",150,2,TRUE,71.4139363665722,2,"Fall"
"439","FA23_1019","Dark Far","original","purple",151,-2,TRUE,38.9248653119495,2,"Fall"
"440","FA23_1020","Light Far","original","yellow",0,-105,FALSE,56.3018265050391,105,"Fall"
"441","FA23_1020","Light Far","original","yellow",1,-171,FALSE,80.0080391602187,171,"Fall"
"442","FA23_1020","Light Far","original","purple",2,30,FALSE,15.118577952738,30,"Fall"
"443","FA23_1020","Light Far","original","violet",3,69,FALSE,28.7448501171063,69,"Fall"
"444","FA23_1020","Light Far","original","orange",4,-108,FALSE,49.8644463081189,108,"Fall"
"445","FA23_1020","Light Far","original","violet",5,142,FALSE,68.6797078172054,142,"Fall"
"446","FA23_1020","Light Far","original","orange",6,41,FALSE,23.1249920595994,41,"Fall"
"447","FA23_1020","Light Far","original","purple",7,20,FALSE,9.65439101085948,20,"Fall"
"448","FA23_1020","Light Far","original","violet",8,-10,FALSE,3.1707851043467,10,"Fall"
"449","FA23_1020","Light Far","original","yellow",9,-28,FALSE,18.1835221635726,28,"Fall"
"450","FA23_1020","Light Far","original","orange",10,39,FALSE,21.9579964524397,39,"Fall"
"451","FA23_1020","Light Far","original","orange",11,16,FALSE,9.04180083824631,16,"Fall"
"452","FA23_1020","Light Far","original","yellow",12,-12,FALSE,8.00750825791257,12,"Fall"
"453","FA23_1020","Light Far","original","violet",13,-14,FALSE,4.37410625758437,14,"Fall"
"454","FA23_1020","Light Far","original","purple",14,33,FALSE,16.8460048578959,33,"Fall"
"455","FA23_1020","Light Far","original","purple",15,25,FALSE,12.3294667021517,25,"Fall"
"456","FA23_1020","Light Far","original","violet",16,-29,FALSE,9.26310552421568,29,"Fall"
"457","FA23_1020","Light Far","original","purple",17,9,TRUE,4.15040480281943,9,"Fall"
"458","FA23_1020","Light Far","original","purple",18,7,TRUE,3.20225226792137,7,"Fall"
"459","FA23_1020","Light Far","original","yellow",19,-3,TRUE,1.99651715410063,3,"Fall"
"460","FA23_1020","Light Far","original","orange",20,26,FALSE,14.577994978909,26,"Fall"
"461","FA23_1020","Light Far","original","yellow",21,-4,TRUE,2.66274915716473,4,"Fall"
"462","FA23_1020","Light Far","original","orange",22,39,FALSE,21.9579964524397,39,"Fall"
"463","FA23_1020","Light Far","original","violet",23,-26,FALSE,8.14609535885522,26,"Fall"
"464","FA23_1020","Light Far","original","violet",24,-11,FALSE,3.4741527236759,11,"Fall"
"465","FA23_1020","Light Far","original","orange",25,21,FALSE,11.804765675503,21,"Fall"
"466","FA23_1020","Light Far","original","orange",26,15,FALSE,8.48842805624419,15,"Fall"
"467","FA23_1020","Light Far","original","purple",27,10,TRUE,4.63027536305798,10,"Fall"
"468","FA23_1020","Light Far","original","yellow",28,5,TRUE,3.25390275589663,5,"Fall"
"469","FA23_1020","Light Far","original","violet",29,-18,FALSE,5.56855055496131,18,"Fall"
"470","FA23_1020","Light Far","original","purple",30,9,TRUE,4.15040480281943,9,"Fall"
"471","FA23_1020","Light Far","original","yellow",31,2,TRUE,1.31462534419722,2,"Fall"
"472","FA23_1020","Light Far","original","yellow",32,2,TRUE,1.31462534419722,2,"Fall"
"473","FA23_1020","Light Far","original","purple",33,6,TRUE,2.7338651982892,6,"Fall"
"474","FA23_1020","Light Far","original","purple",34,2,TRUE,0.897050614930159,2,"Fall"
"475","FA23_1020","Light Far","original","violet",35,-10,FALSE,3.1707851043467,10,"Fall"
"476","FA23_1020","Light Far","original","violet",36,-14,FALSE,4.37410625758437,14,"Fall"
"477","FA23_1020","Light Far","original","orange",37,29,FALSE,16.2544447894114,29,"Fall"
"478","FA23_1020","Light Far","original","orange",38,21,FALSE,11.804765675503,21,"Fall"
"479","FA23_1020","Light Far","original","yellow",39,2,TRUE,1.31462534419722,2,"Fall"
"480","FA23_1020","Light Far","original","orange",40,7,FALSE,4.02252684943675,7,"Fall"
"481","FA23_1020","Light Far","original","yellow",41,9,FALSE,5.75967155032789,9,"Fall"
"482","FA23_1020","Light Far","original","violet",42,-6,TRUE,1.93465491111231,6,"Fall"
"483","FA23_1020","Light Far","original","purple",43,5,TRUE,2.26920171536078,5,"Fall"
"484","FA23_1020","Light Far","original","violet",44,-11,FALSE,3.4741527236759,11,"Fall"
"485","FA23_1020","Light Far","original","purple",45,7,TRUE,3.20225226792137,7,"Fall"
"486","FA23_1020","Light Far","original","orange",46,11,FALSE,6.26719127428969,11,"Fall"
"487","FA23_1020","Light Far","original","yellow",47,6,TRUE,3.88910631784857,6,"Fall"
"488","FA23_1020","Light Far","original","yellow",48,6,TRUE,3.88910631784857,6,"Fall"
"489","FA23_1020","Light Far","original","orange",49,0,TRUE,0,0,"Fall"
"490","FA23_1020","Light Far","original","orange",50,0,TRUE,0,0,"Fall"
"491","FA23_1020","Light Far","original","violet",51,2,TRUE,0.667165467393161,2,"Fall"
"492","FA23_1020","Light Far","original","yellow",52,7,FALSE,4.51979256221399,7,"Fall"
"493","FA23_1020","Light Far","original","purple",53,-7,TRUE,3.03355798079672,7,"Fall"
"494","FA23_1020","Light Far","original","purple",54,-8,TRUE,3.45395985414324,8,"Fall"
"495","FA23_1020","Light Far","original","violet",55,-1,TRUE,0.329459377156701,1,"Fall"
"496","FA23_1020","Light Far","original","orange",56,14,FALSE,7.93451876566769,14,"Fall"
"497","FA23_1020","Light Far","original","yellow",57,7,FALSE,4.51979256221399,7,"Fall"
"498","FA23_1020","Light Far","original","yellow",58,0,TRUE,0,0,"Fall"
"499","FA23_1020","Light Far","original","violet",59,-2,TRUE,0.656078327568269,2,"Fall"
"500","FA23_1020","Light Far","original","purple",60,-1,TRUE,0.44334795913003,1,"Fall"
"501","FA23_1020","Light Far","original","violet",61,-6,TRUE,1.93465491111231,6,"Fall"
"502","FA23_1020","Light Far","original","orange",62,22,FALSE,12.3581243916067,22,"Fall"
"503","FA23_1020","Light Far","original","purple",63,-2,TRUE,0.883302341018886,2,"Fall"
"504","FA23_1020","Light Far","original","purple",64,-2,TRUE,0.883302341018886,2,"Fall"
"505","FA23_1020","Light Far","original","orange",65,7,FALSE,4.02252684943675,7,"Fall"
"506","FA23_1020","Light Far","original","yellow",66,4,TRUE,2.61233879273184,4,"Fall"
"507","FA23_1020","Light Far","original","purple",67,0,TRUE,0,0,"Fall"
"508","FA23_1020","Light Far","original","orange",68,7,FALSE,4.02252684943675,7,"Fall"
"509","FA23_1020","Light Far","original","violet",69,-3,TRUE,0.979846848708749,3,"Fall"
"510","FA23_1020","Light Far","original","yellow",70,9,FALSE,5.75967155032789,9,"Fall"
"511","FA23_1020","Light Far","original","violet",71,-1,TRUE,0.329459377156701,1,"Fall"
"512","FA23_1020","Light Far","original","purple",72,5,TRUE,2.26920171536078,5,"Fall"
"513","FA23_1020","Light Far","original","violet",73,-9,FALSE,2.86545486299818,9,"Fall"
"514","FA23_1020","Light Far","original","purple",74,10,TRUE,4.63027536305798,10,"Fall"
"515","FA23_1020","Light Far","original","violet",75,-6,TRUE,1.93465491111231,6,"Fall"
"516","FA23_1020","Light Far","original","yellow",76,11,FALSE,5.82398534456044,11,"Fall"
"517","FA23_1020","Light Far","original","orange",77,13,FALSE,7.37983318077952,13,"Fall"
"518","FA23_1020","Light Far","original","orange",78,18,FALSE,10.1479085174254,18,"Fall"
"519","FA23_1020","Light Far","original","yellow",79,3,TRUE,1.96531583104478,3,"Fall"
"520","FA23_1020","Light Far","original","orange",80,-12,FALSE,7.24627944128784,12,"Fall"
"521","FA23_1020","Light Far","original","purple",81,6,TRUE,2.7338651982892,6,"Fall"
"522","FA23_1020","Light Far","original","yellow",82,6,TRUE,3.88910631784857,6,"Fall"
"523","FA23_1020","Light Far","original","violet",83,104,FALSE,48.2289936042007,104,"Fall"
"524","FA23_1020","Light Far","original","purple",84,4,TRUE,1.80821107832794,4,"Fall"
"525","FA23_1020","Light Far","original","violet",85,5,TRUE,1.68847397976124,5,"Fall"
"526","FA23_1020","Light Far","original","orange",86,7,FALSE,4.02252684943675,7,"Fall"
"527","FA23_1020","Light Far","original","yellow",87,5,TRUE,3.25390275589663,5,"Fall"
"528","FA23_1020","Light Far","original","violet",88,11,FALSE,3.8022941809984,11,"Fall"
"529","FA23_1020","Light Far","original","purple",89,8,TRUE,3.67441469798969,8,"Fall"
"530","FA23_1020","Light Far","original","yellow",90,5,TRUE,3.25390275589663,5,"Fall"
"531","FA23_1020","Light Far","original","violet",91,4,TRUE,1.34530917524152,4,"Fall"
"532","FA23_1020","Light Far","original","orange",92,-9,FALSE,5.39842433488564,9,"Fall"
"533","FA23_1020","Light Far","original","orange",93,-25,FALSE,15.2531739466698,25,"Fall"
"534","FA23_1020","Light Far","original","purple",94,5,TRUE,2.26920171536078,5,"Fall"
"535","FA23_1020","Light Far","original","yellow",95,4,TRUE,2.61233879273184,4,"Fall"
"536","FA23_1020","Light Far","original","orange",96,-30,FALSE,18.2244991339475,30,"Fall"
"537","FA23_1020","Light Far","original","violet",97,0,TRUE,0,0,"Fall"
"538","FA23_1020","Light Far","original","purple",98,-1,TRUE,0.44334795913003,1,"Fall"
"539","FA23_1020","Light Far","original","violet",99,-1,TRUE,0.329459377156701,1,"Fall"
"540","FA23_1020","Light Far","original","yellow",100,7,FALSE,4.51979256221399,7,"Fall"
"541","FA23_1020","Light Far","original","orange",101,29,FALSE,16.2544447894114,29,"Fall"
"542","FA23_1020","Light Far","original","yellow",102,8,FALSE,5.14134717143706,8,"Fall"
"543","FA23_1020","Light Far","original","purple",103,4,TRUE,1.80821107832794,4,"Fall"
"544","FA23_1020","Light Far","original","violet",104,0,TRUE,0,0,"Fall"
"545","FA23_1020","Light Far","original","violet",105,0,TRUE,0,0,"Fall"
"546","FA23_1020","Light Far","original","purple",106,-8,TRUE,3.45395985414324,8,"Fall"
"547","FA23_1020","Light Far","original","orange",107,10,FALSE,5.70877572563385,10,"Fall"
"548","FA23_1020","Light Far","original","yellow",108,7,FALSE,4.51979256221399,7,"Fall"
"549","FA23_1020","Light Far","original","yellow",109,9,FALSE,5.75967155032789,9,"Fall"
"550","FA23_1020","Light Far","original","orange",110,20,FALSE,11.2521712827895,20,"Fall"
"551","FA23_1020","Light Far","original","purple",111,-1,TRUE,0.44334795913003,1,"Fall"
"552","FA23_1020","Light Far","original","violet",112,4,TRUE,1.34530917524152,4,"Fall"
"553","FA23_1020","Light Far","original","violet",113,5,TRUE,1.68847397976124,5,"Fall"
"554","FA23_1020","Light Far","original","purple",114,-1,TRUE,0.44334795913003,1,"Fall"
"555","FA23_1020","Light Far","original","yellow",115,1,TRUE,0.657885287235583,1,"Fall"
"556","FA23_1020","Light Far","original","purple",116,5,TRUE,2.26920171536078,5,"Fall"
"557","FA23_1020","Light Far","original","yellow",117,2,TRUE,1.31462534419722,2,"Fall"
"558","FA23_1020","Light Far","original","orange",118,10,FALSE,5.70877572563385,10,"Fall"
"559","FA23_1020","Light Far","original","orange",119,-1,TRUE,0.586738372459232,1,"Fall"
"560","FA23_1020","Light Far","original","violet",120,0,TRUE,0,0,"Fall"
"561","FA23_1020","Light Far","original","yellow",121,6,TRUE,3.88910631784857,6,"Fall"
"562","FA23_1020","Light Far","original","violet",122,11,FALSE,3.8022941809984,11,"Fall"
"563","FA23_1020","Light Far","original","orange",123,6,FALSE,3.45609619211873,6,"Fall"
"564","FA23_1020","Light Far","original","orange",124,-3,TRUE,1.77038144822811,3,"Fall"
"565","FA23_1020","Light Far","original","purple",125,1,TRUE,0.446784739046279,1,"Fall"
"566","FA23_1020","Light Far","original","purple",126,6,TRUE,2.7338651982892,6,"Fall"
"567","FA23_1020","Light Far","original","yellow",127,6,TRUE,3.88910631784857,6,"Fall"
"568","FA23_1020","Light Far","original","orange",128,-10,FALSE,6.0124896225185,10,"Fall"
"569","FA23_1020","Light Far","original","violet",129,6,TRUE,2.03432315090061,6,"Fall"
"570","FA23_1020","Light Far","original","purple",130,7,TRUE,3.20225226792137,7,"Fall"
"571","FA23_1020","Light Far","original","purple",131,7,TRUE,3.20225226792137,7,"Fall"
"572","FA23_1020","Light Far","original","orange",132,9,FALSE,5.14866729580578,9,"Fall"
"573","FA23_1020","Light Far","original","yellow",133,2,TRUE,1.31462534419722,2,"Fall"
"574","FA23_1020","Light Far","original","violet",134,14,FALSE,4.89325851498977,14,"Fall"
"575","FA23_1020","Light Far","original","yellow",135,3,TRUE,1.96531583104478,3,"Fall"
"576","FA23_1020","Light Far","original","violet",136,13,FALSE,4.5271510456407,13,"Fall"
"577","FA23_1020","Light Far","original","orange",137,-2,TRUE,1.17673040661517,2,"Fall"
"578","FA23_1020","Light Far","original","orange",138,-3,TRUE,1.77038144822811,3,"Fall"
"579","FA23_1020","Light Far","original","purple",139,3,TRUE,1.35084359684968,3,"Fall"
"580","FA23_1020","Light Far","original","yellow",140,6,TRUE,3.88910631784857,6,"Fall"
"581","FA23_1020","Light Far","original","yellow",141,3,TRUE,1.96531583104478,3,"Fall"
"582","FA23_1020","Light Far","original","purple",142,4,TRUE,1.80821107832794,4,"Fall"
"583","FA23_1020","Light Far","original","violet",143,16,FALSE,5.63270479716113,16,"Fall"
"584","FA23_1020","Light Far","original","yellow",144,9,FALSE,5.75967155032789,9,"Fall"
"585","FA23_1020","Light Far","original","violet",145,5,TRUE,1.68847397976124,5,"Fall"
"586","FA23_1020","Light Far","original","yellow",146,6,TRUE,3.88910631784857,6,"Fall"
"587","FA23_1020","Light Far","original","orange",147,-2,TRUE,1.17673040661517,2,"Fall"
"588","FA23_1020","Light Far","original","orange",148,-4,FALSE,2.36750217904499,4,"Fall"
"589","FA23_1020","Light Far","original","purple",149,0,TRUE,0,0,"Fall"
"590","FA23_1020","Light Far","original","violet",150,7,TRUE,2.38281993560268,7,"Fall"
"591","FA23_1020","Light Far","original","purple",151,6,TRUE,2.7338651982892,6,"Fall"
"592","FA23_1020","Light Far","original","purple",152,5,TRUE,2.26920171536078,5,"Fall"
"593","FA23_1020","Light Far","original","orange",153,1,TRUE,0.583524781404395,1,"Fall"
"594","FA23_1020","Light Far","original","purple",154,-2,TRUE,0.883302341018886,2,"Fall"
"595","FA23_1020","Light Far","original","yellow",155,7,FALSE,4.51979256221399,7,"Fall"
"596","FA23_1020","Light Far","original","violet",156,14,FALSE,4.89325851498977,14,"Fall"
"597","FA23_1020","Light Far","original","orange",157,0,TRUE,0,0,"Fall"
"598","FA23_1020","Light Far","original","yellow",158,1,TRUE,0.657885287235583,1,"Fall"
"599","FA23_1020","Light Far","original","violet",159,4,TRUE,1.34530917524152,4,"Fall"
"600","FA23_1020","Light Far","original","yellow",160,2,TRUE,1.31462534419722,2,"Fall"
"601","FA23_1020","Light Far","original","yellow",161,4,TRUE,2.61233879273184,4,"Fall"
"602","FA23_1020","Light Far","original","violet",162,16,FALSE,5.63270479716113,16,"Fall"
"603","FA23_1020","Light Far","original","violet",163,14,FALSE,4.89325851498977,14,"Fall"
"604","FA23_1020","Light Far","original","orange",164,-6,FALSE,3.57104964897219,6,"Fall"
"605","FA23_1020","Light Far","original","purple",165,1,TRUE,0.446784739046279,1,"Fall"
"606","FA23_1020","Light Far","original","purple",166,1,TRUE,0.446784739046279,1,"Fall"
"607","FA23_1020","Light Far","original","orange",167,3,TRUE,1.74122474033835,3,"Fall"
"608","FA23_1020","Light Far","original","yellow",168,3,TRUE,1.96531583104478,3,"Fall"
"609","FA23_1020","Light Far","original","orange",169,3,TRUE,1.74122474033835,3,"Fall"
"610","FA23_1020","Light Far","original","orange",170,3,TRUE,1.74122474033835,3,"Fall"
"611","FA23_1020","Light Far","original","purple",171,4,TRUE,1.80821107832794,4,"Fall"
"612","FA23_1020","Light Far","original","yellow",172,8,FALSE,5.14134717143706,8,"Fall"
"613","FA23_1020","Light Far","original","purple",173,5,TRUE,2.26920171536078,5,"Fall"
"614","FA23_1020","Light Far","original","violet",174,19,FALSE,6.75959577780658,19,"Fall"
"615","FA23_1020","Light Far","original","violet",175,8,FALSE,2.73383135661251,8,"Fall"
"616","FA23_1020","Light Far","original","orange",176,5,FALSE,2.88717837900862,5,"Fall"
"617","FA23_1020","Light Far","original","violet",177,11,FALSE,3.8022941809984,11,"Fall"
"618","FA23_1020","Light Far","original","yellow",178,8,FALSE,5.14134717143706,8,"Fall"
"619","FA23_1020","Light Far","original","purple",179,7,TRUE,3.20225226792137,7,"Fall"
"620","FA23_1020","Light Far","original","orange",180,6,FALSE,3.45609619211873,6,"Fall"
"621","FA23_1020","Light Far","original","violet",181,0,TRUE,0,0,"Fall"
"622","FA23_1020","Light Far","original","yellow",182,7,FALSE,4.51979256221399,7,"Fall"
"623","FA23_1020","Light Far","original","purple",183,6,TRUE,2.7338651982892,6,"Fall"
"624","FA23_1020","Light Far","original","purple",184,6,TRUE,2.7338651982892,6,"Fall"
"625","FA23_1020","Light Far","original","orange",185,6,FALSE,3.45609619211873,6,"Fall"
"626","FA23_1020","Light Far","original","yellow",186,10,FALSE,5.75967155032789,10,"Fall"
"627","FA23_1020","Light Far","original","purple",187,11,TRUE,5.11407959836656,11,"Fall"
"628","FA23_1020","Light Far","original","orange",188,0,TRUE,0,0,"Fall"
"629","FA23_1020","Light Far","original","violet",189,-2,TRUE,0.656078327568269,2,"Fall"
"630","FA23_1020","Light Far","original","violet",190,-1,TRUE,0.329459377156701,1,"Fall"
"631","FA23_1020","Light Far","original","yellow",191,5,TRUE,3.25390275589663,5,"Fall"
"632","FA23_1020","Light Far","original","yellow",192,2,TRUE,1.31462534419722,2,"Fall"
"633","FA23_1020","Light Far","original","purple",193,11,TRUE,5.11407959836656,11,"Fall"
"634","FA23_1020","Light Far","original","orange",194,0,TRUE,0,0,"Fall"
"635","FA23_1020","Light Far","original","purple",195,6,TRUE,2.7338651982892,6,"Fall"
"636","FA23_1020","Light Far","original","yellow",196,9,FALSE,5.75967155032789,9,"Fall"
"637","FA23_1020","Light Far","original","orange",197,2,TRUE,1.16390252198921,2,"Fall"
"638","FA23_1020","Light Far","original","violet",198,3,TRUE,1.00486225630451,3,"Fall"
"639","FA23_1020","Light Far","original","violet",199,3,TRUE,1.00486225630451,3,"Fall"
"640","FA23_1020","Light Far","original","yellow",200,7,FALSE,4.51979256221399,7,"Fall"
"641","FA23_1020","Light Far","original","yellow",201,12,FALSE,5.97377786280485,12,"Fall"
"642","FA23_1020","Light Far","original","purple",202,12,FALSE,5.60187065191152,12,"Fall"
"643","FA23_1020","Light Far","original","violet",203,-1,TRUE,0.329459377156701,1,"Fall"
"644","FA23_1020","Light Far","original","orange",204,3,TRUE,1.74122474033835,3,"Fall"
"645","FA23_1020","Light Far","original","violet",205,0,TRUE,0,0,"Fall"
"646","FA23_1020","Light Far","original","purple",206,6,TRUE,2.7338651982892,6,"Fall"
"647","FA23_1020","Light Far","original","orange",207,2,TRUE,1.16390252198921,2,"Fall"
"648","FA23_1020","Light Far","original","orange",208,1,TRUE,0.583524781404395,1,"Fall"
"649","FA23_1020","Light Far","original","orange",209,1,TRUE,0.583524781404395,1,"Fall"
"650","FA23_1020","Light Far","original","purple",210,4,TRUE,1.80821107832794,4,"Fall"
"651","FA23_1020","Light Far","original","yellow",211,6,TRUE,3.88910631784857,6,"Fall"
"652","FA23_1020","Light Far","original","violet",212,4,TRUE,1.34530917524152,4,"Fall"
"653","FA23_1020","Light Far","original","purple",213,0,TRUE,0,0,"Fall"
"654","FA23_1020","Light Far","original","yellow",214,1,TRUE,0.657885287235583,1,"Fall"
"655","FA23_1020","Light Far","original","violet",215,2,TRUE,0.667165467393161,2,"Fall"
"656","FA23_1020","Light Far","original","violet",216,2,TRUE,0.667165467393161,2,"Fall"
"657","FA23_1020","Light Far","original","purple",217,8,TRUE,3.67441469798969,8,"Fall"
"658","FA23_1020","Light Far","original","orange",218,8,FALSE,4.5866525584318,8,"Fall"
"659","FA23_1020","Light Far","original","yellow",219,8,FALSE,5.14134717143706,8,"Fall"
"660","FA23_1020","Light Far","original","purple",220,7,TRUE,3.20225226792137,7,"Fall"
"661","FA23_1020","Light Far","original","orange",221,7,FALSE,4.02252684943675,7,"Fall"
"662","FA23_1020","Light Far","original","yellow",222,10,FALSE,5.75967155032789,10,"Fall"
"663","FA23_1020","Light Far","original","violet",223,0,TRUE,0,0,"Fall"
"664","FA23_1020","Light Far","original","orange",224,1,TRUE,0.583524781404395,1,"Fall"
"665","FA23_1020","Light Far","original","purple",225,10,TRUE,4.63027536305798,10,"Fall"
"666","FA23_1020","Light Far","original","yellow",226,7,FALSE,4.51979256221399,7,"Fall"
"667","FA23_1020","Light Far","original","orange",227,1,TRUE,0.583524781404395,1,"Fall"
"668","FA23_1020","Light Far","original","violet",228,-7,TRUE,2.2474031639334,7,"Fall"
"669","FA23_1020","Light Far","original","violet",229,-6,TRUE,1.93465491111231,6,"Fall"
"670","FA23_1020","Light Far","original","yellow",230,12,FALSE,5.97377786280485,12,"Fall"
"671","FA23_1020","Light Far","original","purple",231,8,TRUE,3.67441469798969,8,"Fall"
"672","FA23_1020","Light Far","original","purple",232,8,TRUE,3.67441469798969,8,"Fall"
"673","FA23_1020","Light Far","original","orange",233,-2,TRUE,1.17673040661517,2,"Fall"
"674","FA23_1020","Light Far","original","purple",234,2,TRUE,0.897050614930159,2,"Fall"
"675","FA23_1020","Light Far","original","yellow",235,3,TRUE,1.96531583104478,3,"Fall"
"676","FA23_1020","Light Far","original","yellow",236,4,TRUE,2.61233879273184,4,"Fall"
"677","FA23_1020","Light Far","original","violet",237,-2,TRUE,0.656078327568269,2,"Fall"
"678","FA23_1020","Light Far","original","orange",238,-6,FALSE,3.57104964897219,6,"Fall"
"679","FA23_1020","Light Far","original","violet",239,-2,TRUE,0.656078327568269,2,"Fall"
"680","FA23_1020","Light Far","original","yellow",240,1,TRUE,0.657885287235583,1,"Fall"
"681","FA23_1020","Light Far","original","violet",241,-1,TRUE,0.329459377156701,1,"Fall"
"682","FA23_1020","Light Far","original","violet",242,-1,TRUE,0.329459377156701,1,"Fall"
"683","FA23_1020","Light Far","original","yellow",243,1,TRUE,0.657885287235583,1,"Fall"
"684","FA23_1020","Light Far","original","purple",244,19,FALSE,9.13277647876263,19,"Fall"
"685","FA23_1020","Light Far","original","orange",245,1,TRUE,0.583524781404395,1,"Fall"
"686","FA23_1021","Dark Far","original","yellow",0,-29,FALSE,76.856179387226,29,"Fall"
"687","FA23_1021","Dark Far","original","yellow",1,-30,FALSE,76.2414882085901,30,"Fall"
"688","FA23_1021","Dark Far","original","purple",2,35,FALSE,20.414688481002,35,"Fall"
"689","FA23_1021","Dark Far","original","violet",3,58,FALSE,49.4030803809408,58,"Fall"
"690","FA23_1021","Dark Far","original","orange",4,-107,FALSE,17.7043768937864,107,"Fall"
"691","FA23_1021","Dark Far","original","violet",5,38,FALSE,57.4264273865254,38,"Fall"
"692","FA23_1021","Dark Far","original","orange",6,86,FALSE,63.177366502908,86,"Fall"
"693","FA23_1021","Dark Far","original","purple",7,3,TRUE,36.7333497524367,3,"Fall"
"694","FA23_1021","Dark Far","original","violet",8,33,FALSE,59.3311264912623,33,"Fall"
"695","FA23_1021","Dark Far","original","yellow",9,-18,FALSE,82.8256785019346,18,"Fall"
"696","FA23_1021","Dark Far","original","orange",10,9,FALSE,38.7064892035837,9,"Fall"
"697","FA23_1021","Dark Far","original","orange",11,0,TRUE,34.233527836524,0,"Fall"
"698","FA23_1021","Dark Far","original","yellow",12,-10,FALSE,86.0776613150851,10,"Fall"
"699","FA23_1021","Dark Far","original","violet",13,29,FALSE,60.8477208314095,29,"Fall"
"700","FA23_1021","Dark Far","original","purple",14,-5,TRUE,40.1891372501914,5,"Fall"
"701","FA23_1021","Dark Far","original","purple",15,-5,TRUE,40.1891372501914,5,"Fall"
"702","FA23_1021","Dark Far","original","violet",16,4,TRUE,70.6004026601964,4,"Fall"
"703","FA23_1021","Dark Far","original","purple",17,-12,FALSE,42.9584541533571,12,"Fall"
"704","FA23_1021","Dark Far","original","purple",18,-7,TRUE,41.0078129351936,7,"Fall"
"705","FA23_1021","Dark Far","original","yellow",19,-10,FALSE,86.0776613150851,10,"Fall"
"706","FA23_1021","Dark Far","original","orange",20,22,FALSE,44.5703762157464,22,"Fall"
"707","FA23_1021","Dark Far","original","yellow",21,1,TRUE,89.8631499059216,1,"Fall"
"708","FA23_1021","Dark Far","original","orange",22,16,FALSE,41.9155697641016,16,"Fall"
"709","FA23_1021","Dark Far","original","violet",23,-2,TRUE,73.047029572015,2,"Fall"
"710","FA23_1021","Dark Far","original","violet",24,-2,TRUE,73.047029572015,2,"Fall"
"711","FA23_1021","Dark Far","original","orange",25,25,FALSE,45.8824365067011,25,"Fall"
"712","FA23_1021","Dark Far","original","orange",26,33,FALSE,49.3774849526221,33,"Fall"
"713","FA23_1021","Dark Far","original","purple",27,-12,FALSE,42.9584541533571,12,"Fall"
"714","FA23_1021","Dark Far","original","yellow",28,-2,TRUE,88.8676573506764,2,"Fall"
"715","FA23_1021","Dark Far","original","violet",29,-3,TRUE,73.454885804489,3,"Fall"
"716","FA23_1021","Dark Far","original","purple",30,-18,FALSE,45.1008729537265,18,"Fall"
"717","FA23_1021","Dark Far","original","yellow",31,3,TRUE,90.5166340400219,3,"Fall"
"718","FA23_1021","Dark Far","original","yellow",32,3,TRUE,90.5166340400219,3,"Fall"
"719","FA23_1021","Dark Far","original","purple",33,-16,FALSE,44.4112069660632,16,"Fall"
"720","FA23_1021","Dark Far","original","purple",34,-9,TRUE,41.8052517680085,9,"Fall"
"721","FA23_1021","Dark Far","original","violet",35,-10,FALSE,76.2509054439501,10,"Fall"
"722","FA23_1021","Dark Far","original","violet",36,-18,FALSE,79.0486551019613,18,"Fall"
"723","FA23_1021","Dark Far","original","orange",37,21,FALSE,44.13134056423,21,"Fall"
"724","FA23_1021","Dark Far","original","orange",38,28,FALSE,47.1917837451519,28,"Fall"
"725","FA23_1021","Dark Far","original","yellow",39,9,FALSE,92.4284658755151,9,"Fall"
"726","FA23_1021","Dark Far","original","orange",40,10,FALSE,39.1758709528552,10,"Fall"
"727","FA23_1021","Dark Far","original","yellow",41,5,TRUE,91.1619642116629,5,"Fall"
"728","FA23_1021","Dark Far","original","violet",42,-6,TRUE,74.670720497331,6,"Fall"
"729","FA23_1021","Dark Far","original","purple",43,-20,FALSE,45.7668646019325,20,"Fall"
"730","FA23_1021","Dark Far","original","violet",44,-13,FALSE,77.3761792568425,13,"Fall"
"731","FA23_1021","Dark Far","original","purple",45,-24,FALSE,47.0327332894299,24,"Fall"
"732","FA23_1021","Dark Far","original","orange",46,11,FALSE,39.6410284832875,11,"Fall"
"733","FA23_1021","Dark Far","original","yellow",47,7,FALSE,91.7992108380804,7,"Fall"
"734","FA23_1021","Dark Far","original","yellow",48,6,TRUE,91.4813205690901,6,"Fall"
"735","FA23_1021","Dark Far","original","orange",49,7,FALSE,37.7536184532748,7,"Fall"
"736","FA23_1021","Dark Far","original","orange",50,-9,FALSE,29.1812803117132,9,"Fall"
"737","FA23_1021","Dark Far","original","violet",51,-18,FALSE,79.0486551019613,18,"Fall"
"738","FA23_1021","Dark Far","original","yellow",52,7,FALSE,91.7992108380804,7,"Fall"
"739","FA23_1021","Dark Far","original","purple",53,-14,FALSE,43.6971349486163,14,"Fall"
"740","FA23_1021","Dark Far","original","purple",54,-16,FALSE,44.4112069660632,16,"Fall"
"741","FA23_1021","Dark Far","original","violet",55,-26,FALSE,80.8718611748979,26,"Fall"
"742","FA23_1021","Dark Far","original","orange",56,11,FALSE,39.6410284832875,11,"Fall"
"743","FA23_1021","Dark Far","original","yellow",57,3,TRUE,90.5166340400219,3,"Fall"
"744","FA23_1021","Dark Far","original","yellow",58,3,TRUE,90.5166340400219,3,"Fall"
"745","FA23_1021","Dark Far","original","violet",59,-19,FALSE,79.3413546804798,19,"Fall"
"746","FA23_1021","Dark Far","original","purple",60,-22,FALSE,46.4103336035039,22,"Fall"
"747","FA23_1021","Dark Far","original","violet",61,-5,TRUE,74.2672480807463,5,"Fall"
"748","FA23_1021","Dark Far","original","orange",62,-2,TRUE,33.1648104876768,2,"Fall"
"749","FA23_1021","Dark Far","original","purple",63,-23,FALSE,46.7240643614569,23,"Fall"
"750","FA23_1021","Dark Far","original","purple",64,-17,FALSE,44.7590563763524,17,"Fall"
"751","FA23_1021","Dark Far","original","orange",65,25,FALSE,45.8824365067011,25,"Fall"
"752","FA23_1021","Dark Far","original","yellow",66,2,TRUE,90.1912331843525,2,"Fall"
"753","FA23_1021","Dark Far","original","purple",67,-14,FALSE,43.6971349486163,14,"Fall"
"754","FA23_1021","Dark Far","original","orange",68,-10,FALSE,28.5842226667789,10,"Fall"
"755","FA23_1021","Dark Far","original","violet",69,-24,FALSE,80.5334803317878,24,"Fall"
"756","FA23_1021","Dark Far","original","yellow",70,5,TRUE,91.1619642116629,5,"Fall"
"757","FA23_1021","Dark Far","original","violet",71,-21,FALSE,79.8751425371119,21,"Fall"
"758","FA23_1021","Dark Far","original","purple",72,-19,FALSE,45.4367642973944,19,"Fall"
"759","FA23_1021","Dark Far","original","violet",73,-16,FALSE,78.4176393892713,16,"Fall"
"760","FA23_1021","Dark Far","original","purple",74,-21,FALSE,46.0913298698518,21,"Fall"
"761","FA23_1021","Dark Far","original","violet",75,-23,FALSE,80.3338985314934,23,"Fall"
"762","FA23_1021","Dark Far","original","yellow",76,5,TRUE,91.1619642116629,5,"Fall"
"763","FA23_1021","Dark Far","original","orange",77,-1,TRUE,33.7029778467497,1,"Fall"
"764","FA23_1021","Dark Far","original","orange",78,-1,TRUE,33.7029778467497,1,"Fall"
"765","FA23_1021","Dark Far","original","yellow",79,5,TRUE,91.1619642116629,5,"Fall"
"766","FA23_1021","Dark Far","original","orange",80,-9,FALSE,29.1812803117132,9,"Fall"
"767","FA23_1021","Dark Far","original","purple",81,-8,TRUE,41.4092849979776,8,"Fall"
"768","FA23_1021","Dark Far","original","yellow",82,7,FALSE,91.7992108380804,7,"Fall"
"769","FA23_1021","Dark Far","original","violet",83,-24,FALSE,80.5334803317878,24,"Fall"
"770","FA23_1021","Dark Far","original","purple",84,-9,TRUE,41.8052517680085,9,"Fall"
"771","FA23_1021","Dark Far","original","violet",85,-17,FALSE,78.7403832305974,17,"Fall"
"772","FA23_1021","Dark Far","original","orange",86,-7,FALSE,30.3563559773326,7,"Fall"
"773","FA23_1021","Dark Far","original","yellow",87,6,TRUE,91.4813205690901,6,"Fall"
"774","FA23_1021","Dark Far","original","violet",88,-25,FALSE,80.712793979345,25,"Fall"
"775","FA23_1021","Dark Far","original","purple",89,-18,FALSE,45.1008729537265,18,"Fall"
"776","FA23_1021","Dark Far","original","yellow",90,8,FALSE,92.1141975810946,8,"Fall"
"777","FA23_1021","Dark Far","original","violet",91,-22,FALSE,80.114298902075,22,"Fall"
"778","FA23_1021","Dark Far","original","orange",92,-6,FALSE,30.9331490015393,6,"Fall"
"779","FA23_1021","Dark Far","original","orange",93,-11,FALSE,27.981530900063,11,"Fall"
"780","FA23_1021","Dark Far","original","purple",94,-10,TRUE,42.1955353550034,10,"Fall"
"781","FA23_1021","Dark Far","original","yellow",95,5,TRUE,91.1619642116629,5,"Fall"
"782","FA23_1021","Dark Far","original","orange",96,-1,TRUE,33.7029778467497,1,"Fall"
"783","FA23_1021","Dark Far","original","violet",97,-26,FALSE,80.8718611748979,26,"Fall"
"784","FA23_1021","Dark Far","original","purple",98,-11,TRUE,42.5799794153654,11,"Fall"
"785","FA23_1021","Dark Far","original","violet",99,-14,FALSE,77.7342618630413,14,"Fall"
"786","FA23_1021","Dark Far","original","yellow",100,7,FALSE,91.7992108380804,7,"Fall"
"787","FA23_1021","Dark Far","original","orange",101,-11,FALSE,27.981530900063,11,"Fall"
"788","FA23_1021","Dark Far","original","yellow",102,6,TRUE,91.4813205690901,6,"Fall"
"789","FA23_1021","Dark Far","original","purple",103,-8,TRUE,41.4092849979776,8,"Fall"
"790","FA23_1021","Dark Far","original","violet",104,-9,FALSE,75.8624654167675,9,"Fall"
"791","FA23_1021","Dark Far","original","violet",105,-9,FALSE,75.8624654167675,9,"Fall"
"792","FA23_1021","Dark Far","original","purple",106,-15,FALSE,44.0572476980739,15,"Fall"
"793","FA23_1021","Dark Far","original","orange",107,-6,FALSE,30.9331490015393,6,"Fall"
"794","FA23_1021","Dark Far","original","yellow",108,1,TRUE,89.8631499059216,1,"Fall"
"795","FA23_1021","Dark Far","original","yellow",109,1,TRUE,89.8631499059216,1,"Fall"
"796","FA23_1021","Dark Far","original","orange",110,-17,FALSE,24.2820734365156,17,"Fall"
"797","FA23_1021","Dark Far","original","purple",111,-6,TRUE,40.6010292324377,6,"Fall"
"798","FA23_1021","Dark Far","original","violet",112,-30,FALSE,81.3158707876775,30,"Fall"
"799","FA23_1021","Dark Far","original","violet",113,-13,FALSE,77.3761792568425,13,"Fall"
"800","FA23_1021","Dark Far","original","purple",114,-10,TRUE,42.1955353550034,10,"Fall"
"801","FA23_1021","Dark Far","original","yellow",115,5,TRUE,91.1619642116629,5,"Fall"
"802","FA23_1021","Dark Far","original","purple",116,-8,TRUE,41.4092849979776,8,"Fall"
"803","FA23_1021","Dark Far","original","yellow",117,4,TRUE,90.8403540429104,4,"Fall"
"804","FA23_1021","Dark Far","original","orange",118,-2,TRUE,33.1648104876768,2,"Fall"
"805","FA23_1021","Dark Far","original","orange",119,-2,TRUE,33.1648104876768,2,"Fall"
"806","FA23_1021","Dark Far","original","violet",120,-14,FALSE,77.7342618630413,14,"Fall"
"807","FA23_1021","Dark Far","original","yellow",121,3,TRUE,90.5166340400219,3,"Fall"
"808","FA23_1021","Dark Far","original","violet",122,-35,FALSE,81.5179389444554,35,"Fall"
"809","FA23_1021","Dark Far","original","orange",123,-3,TRUE,32.6186025363884,3,"Fall"
"810","FA23_1021","Dark Far","original","orange",124,-3,TRUE,32.6186025363884,3,"Fall"
"811","FA23_1021","Dark Far","original","purple",125,-7,TRUE,41.0078129351936,7,"Fall"
"812","FA23_1021","Dark Far","original","purple",126,-7,TRUE,41.0078129351936,7,"Fall"
"813","FA23_1021","Dark Far","original","yellow",127,2,TRUE,90.1912331843525,2,"Fall"
"814","FA23_1021","Dark Far","original","orange",128,-3,TRUE,32.6186025363884,3,"Fall"
"815","FA23_1021","Dark Far","original","violet",129,15,FALSE,66.2162138287505,15,"Fall"
"816","FA23_1021","Dark Far","original","purple",130,-1,TRUE,38.4945635025893,1,"Fall"
"817","FA23_1021","Dark Far","original","purple",131,-2,TRUE,38.9248653119495,2,"Fall"
"818","FA23_1021","Dark Far","original","orange",132,-7,FALSE,30.3563559773326,7,"Fall"
"819","FA23_1021","Dark Far","original","yellow",133,3,TRUE,90.5166340400219,3,"Fall"
"820","FA23_1021","Dark Far","original","violet",134,-37,FALSE,81.5238421994366,37,"Fall"
"821","FA23_1021","Dark Far","original","yellow",135,7,FALSE,91.7992108380804,7,"Fall"
"822","FA23_1021","Dark Far","original","violet",136,-43,FALSE,81.4200642132756,43,"Fall"
"823","FA23_1021","Dark Far","original","orange",137,-9,FALSE,29.1812803117132,9,"Fall"
"824","FA23_1021","Dark Far","original","orange",138,-12,FALSE,27.3736269886177,12,"Fall"
"825","FA23_1021","Dark Far","original","purple",139,-6,TRUE,40.6010292324377,6,"Fall"
"826","FA23_1021","Dark Far","original","yellow",140,5,TRUE,91.1619642116629,5,"Fall"
"827","FA23_1021","Dark Far","original","yellow",141,4,TRUE,90.8403540429104,4,"Fall"
"828","FA23_1021","Dark Far","original","purple",142,-4,TRUE,39.7723438463716,4,"Fall"
"829","FA23_1021","Dark Far","original","violet",143,-18,FALSE,79.0486551019613,18,"Fall"
"830","FA23_1021","Dark Far","original","yellow",144,5,TRUE,91.1619642116629,5,"Fall"
"831","FA23_1021","Dark Far","original","violet",145,7,TRUE,69.3880976391559,7,"Fall"
"832","FA23_1021","Dark Far","original","yellow",146,5,TRUE,91.1619642116629,5,"Fall"
"833","FA23_1021","Dark Far","original","orange",147,-11,FALSE,27.981530900063,11,"Fall"
"834","FA23_1021","Dark Far","original","orange",148,-15,FALSE,25.52633185177,15,"Fall"
"835","FA23_1021","Dark Far","original","purple",149,-3,TRUE,39.3508540468193,3,"Fall"
"836","FA23_1021","Dark Far","original","violet",150,12,FALSE,67.3948144446832,12,"Fall"
"837","FA23_1021","Dark Far","original","purple",151,-5,TRUE,40.1891372501914,5,"Fall"
"838","FA23_1021","Dark Far","original","purple",152,-6,TRUE,40.6010292324377,6,"Fall"
"839","FA23_1021","Dark Far","original","orange",153,-13,FALSE,26.7613321066222,13,"Fall"
"840","FA23_1021","Dark Far","original","purple",154,-5,TRUE,40.1891372501914,5,"Fall"
"841","FA23_1021","Dark Far","original","yellow",155,3,TRUE,90.5166340400219,3,"Fall"
"842","FA23_1021","Dark Far","original","violet",156,10,FALSE,68.1877850851887,10,"Fall"
"843","FA23_1021","Dark Far","original","orange",157,-9,FALSE,29.1812803117132,9,"Fall"
"844","FA23_1021","Dark Far","original","yellow",158,5,TRUE,91.1619642116629,5,"Fall"
"845","FA23_1021","Dark Far","original","violet",159,9,FALSE,68.5864629609459,9,"Fall"
"846","FA23_1021","Dark Far","original","yellow",160,4,TRUE,90.8403540429104,4,"Fall"
"847","FA23_1021","Dark Far","original","yellow",161,4,TRUE,90.8403540429104,4,"Fall"
"848","FA23_1021","Dark Far","original","violet",162,8,FALSE,68.9865796435201,8,"Fall"
"849","FA23_1021","Dark Far","original","violet",163,10,FALSE,68.1877850851887,10,"Fall"
"850","FA23_1021","Dark Far","original","orange",164,-12,FALSE,27.3736269886177,12,"Fall"
"851","FA23_1021","Dark Far","original","purple",165,4,TRUE,36.2836493165983,4,"Fall"
"852","FA23_1021","Dark Far","original","purple",166,4,TRUE,36.2836493165983,4,"Fall"
"853","FA23_1021","Dark Far","original","orange",167,-14,FALSE,26.1453462280333,14,"Fall"
"854","FA23_1021","Dark Far","original","yellow",168,5,TRUE,91.1619642116629,5,"Fall"
"855","FA23_1021","Dark Far","original","orange",169,1,TRUE,34.7566300814818,1,"Fall"
"856","FA23_1021","Dark Far","original","orange",170,1,TRUE,34.7566300814818,1,"Fall"
"857","FA23_1021","Dark Far","original","purple",171,3,TRUE,36.7333497524367,3,"Fall"
"858","FA23_1021","Dark Far","original","yellow",172,3,TRUE,90.5166340400219,3,"Fall"
"859","FA23_1021","Dark Far","original","purple",173,-1,TRUE,38.4945635025893,1,"Fall"
"860","FA23_1021","Dark Far","original","violet",174,19,FALSE,64.6635581753374,19,"Fall"
"861","FA23_1021","Dark Far","original","violet",175,24,FALSE,62.7472439372799,24,"Fall"
"862","FA23_1021","Dark Far","original","orange",176,-4,FALSE,32.0644403597233,4,"Fall"
"863","FA23_1021","Dark Far","original","violet",177,29,FALSE,60.8477208314095,29,"Fall"
"864","FA23_1021","Dark Far","original","yellow",178,4,TRUE,90.8403540429104,4,"Fall"
"865","FA23_1021","Dark Far","original","purple",179,4,TRUE,36.2836493165983,4,"Fall"
"866","FA23_1021","Dark Far","original","orange",180,-13,FALSE,26.7613321066222,13,"Fall"
"867","FA23_1021","Dark Far","original","violet",181,27,FALSE,61.60633759554,27,"Fall"
"868","FA23_1021","Dark Far","original","yellow",182,-1,TRUE,89.2012543401193,1,"Fall"
"869","FA23_1021","Dark Far","original","purple",183,2,TRUE,37.1793909955221,2,"Fall"
"870","FA23_1021","Dark Far","original","purple",184,2,TRUE,37.1793909955221,2,"Fall"
"871","FA23_1021","Dark Far","original","orange",185,-4,FALSE,32.0644403597233,4,"Fall"
"872","FA23_1021","Dark Far","original","yellow",186,2,TRUE,90.1912331843525,2,"Fall"
"873","FA23_1021","Dark Far","original","purple",187,-2,TRUE,38.9248653119495,2,"Fall"
"874","FA23_1021","Dark Far","original","orange",188,-5,FALSE,31.5025803225099,5,"Fall"
"875","FA23_1021","Dark Far","original","violet",189,9,FALSE,68.5864629609459,9,"Fall"
"876","FA23_1021","Dark Far","original","violet",190,16,FALSE,65.8261313199751,16,"Fall"
"877","FA23_1021","Dark Far","original","yellow",191,-2,TRUE,88.8676573506764,2,"Fall"
"878","FA23_1021","Dark Far","original","yellow",192,-2,TRUE,88.8676573506764,2,"Fall"
"879","FA23_1021","Dark Far","original","purple",193,-1,TRUE,38.4945635025893,1,"Fall"
"880","FA23_1021","Dark Far","original","orange",194,3,TRUE,35.7814125699222,3,"Fall"
"881","FA23_1021","Dark Far","original","purple",195,-5,TRUE,40.1891372501914,5,"Fall"
"882","FA23_1021","Dark Far","original","yellow",196,3,TRUE,90.5166340400219,3,"Fall"
"883","FA23_1021","Dark Far","original","orange",197,10,FALSE,39.1758709528552,10,"Fall"
"884","FA23_1021","Dark Far","original","violet",198,30,FALSE,60.4686707913403,30,"Fall"
"885","FA23_1021","Dark Far","original","violet",199,23,FALSE,63.1287682355838,23,"Fall"
"886","FA23_1021","Dark Far","original","yellow",200,5,TRUE,91.1619642116629,5,"Fall"
"887","FA23_1021","Dark Far","original","yellow",201,5,TRUE,91.1619642116629,5,"Fall"
"888","FA23_1021","Dark Far","original","purple",202,-2,TRUE,38.9248653119495,2,"Fall"
"889","FA23_1021","Dark Far","original","violet",203,30,FALSE,60.4686707913403,30,"Fall"
"890","FA23_1021","Dark Far","original","orange",204,5,FALSE,36.7795348902063,5,"Fall"
"891","FA23_1021","Dark Far","original","violet",205,48,FALSE,53.5260907183986,48,"Fall"
"892","FA23_1021","Dark Far","original","purple",206,-1,TRUE,38.4945635025893,1,"Fall"
"893","FA23_1021","Dark Far","original","orange",207,5,FALSE,36.7795348902063,5,"Fall"
"894","FA23_1021","Dark Far","original","orange",208,15,FALSE,41.4663769161209,15,"Fall"
"895","FA23_1021","Dark Far","original","orange",209,-9,FALSE,29.1812803117132,9,"Fall"
"896","FA23_1021","Dark Far","original","purple",210,8,TRUE,34.4492909329459,8,"Fall"
"897","FA23_1021","Dark Far","original","yellow",211,2,TRUE,90.1912331843525,2,"Fall"
"898","FA23_1021","Dark Far","original","violet",212,21,FALSE,63.8942446137251,21,"Fall"
"899","FA23_1021","Dark Far","original","purple",213,-6,TRUE,40.6010292324377,6,"Fall"
"900","FA23_1021","Dark Far","original","yellow",214,7,FALSE,91.7992108380804,7,"Fall"
"901","FA23_1021","Dark Far","original","violet",215,-10,FALSE,76.2509054439501,10,"Fall"
"902","FA23_1021","Dark Far","original","violet",216,2,TRUE,71.4139363665722,2,"Fall"
"903","FA23_1021","Dark Far","original","purple",217,-7,TRUE,41.0078129351936,7,"Fall"
"904","FA23_1021","Dark Far","original","orange",218,3,TRUE,35.7814125699222,3,"Fall"
"905","FA23_1021","Dark Far","original","yellow",219,5,TRUE,91.1619642116629,5,"Fall"
"906","FA23_1021","Dark Far","original","purple",220,0,TRUE,38.0601191891583,0,"Fall"
"907","FA23_1021","Dark Far","original","orange",221,16,FALSE,41.9155697641016,16,"Fall"
"908","FA23_1021","Dark Far","original","yellow",222,7,FALSE,91.7992108380804,7,"Fall"
"909","FA23_1021","Dark Far","original","violet",223,7,TRUE,69.3880976391559,7,"Fall"
"910","FA23_1021","Dark Far","original","orange",224,-2,TRUE,33.1648104876768,2,"Fall"
"911","FA23_1021","Dark Far","original","purple",225,-6,TRUE,40.6010292324377,6,"Fall"
"912","FA23_1021","Dark Far","original","yellow",226,3,TRUE,90.5166340400219,3,"Fall"
"913","FA23_1021","Dark Far","original","orange",227,0,TRUE,34.233527836524,0,"Fall"
"914","FA23_1021","Dark Far","original","violet",228,5,TRUE,70.1951056496982,5,"Fall"
"915","FA23_1021","Dark Far","original","violet",229,5,TRUE,70.1951056496982,5,"Fall"
"916","FA23_1021","Dark Far","original","yellow",230,3,TRUE,90.5166340400219,3,"Fall"
"917","FA23_1021","Dark Far","original","purple",231,-12,FALSE,42.9584541533571,12,"Fall"
"918","FA23_1021","Dark Far","original","purple",232,-19,FALSE,45.4367642973944,19,"Fall"
"919","FA23_1021","Dark Far","original","orange",233,2,TRUE,35.2725044191561,2,"Fall"
"920","FA23_1021","Dark Far","original","purple",234,-13,FALSE,43.3308608804435,13,"Fall"
"921","FA23_1021","Dark Far","original","yellow",235,3,TRUE,90.5166340400219,3,"Fall"
"922","FA23_1021","Dark Far","original","yellow",236,3,TRUE,90.5166340400219,3,"Fall"
"923","FA23_1021","Dark Far","original","violet",237,5,TRUE,70.1951056496982,5,"Fall"
"924","FA23_1021","Dark Far","original","orange",238,-11,FALSE,27.981530900063,11,"Fall"
"925","FA23_1021","Dark Far","original","violet",239,7,TRUE,69.3880976391559,7,"Fall"
"926","FA23_1021","Dark Far","original","yellow",240,-3,TRUE,88.5302323793866,3,"Fall"
"927","FA23_1021","Dark Far","original","violet",241,5,TRUE,70.1951056496982,5,"Fall"
"928","FA23_1021","Dark Far","original","violet",242,-3,TRUE,73.454885804489,3,"Fall"
"929","FA23_1021","Dark Far","original","yellow",243,5,TRUE,91.1619642116629,5,"Fall"
"930","FA23_1021","Dark Far","original","purple",244,-9,TRUE,41.8052517680085,9,"Fall"
"931","FA23_1021","Dark Far","original","orange",245,17,FALSE,42.3625464577618,17,"Fall"
"932","FA23_1021","Dark Far","original","purple",246,-11,TRUE,42.5799794153654,11,"Fall"
"933","FA23_1021","Dark Far","original","orange",247,-4,FALSE,32.0644403597233,4,"Fall"
"934","FA23_1021","Dark Far","original","purple",248,-6,TRUE,40.6010292324377,6,"Fall"
"935","FA23_1021","Dark Far","original","orange",249,-8,FALSE,29.7721828174835,8,"Fall"
"936","FA23_1021","Dark Far","original","violet",250,-1,TRUE,72.6386645455905,1,"Fall"
"937","FA23_1021","Dark Far","original","purple",251,-9,TRUE,41.8052517680085,9,"Fall"
"938","FA23_1021","Dark Far","original","violet",252,6,TRUE,69.7909698500822,6,"Fall"
"939","FA23_1021","Dark Far","original","yellow",253,5,TRUE,91.1619642116629,5,"Fall"
"940","FA23_1021","Dark Far","original","yellow",254,3,TRUE,90.5166340400219,3,"Fall"
"941","FA23_1021","Dark Far","original","orange",255,4,TRUE,36.2836493165983,4,"Fall"
"942","FA23_1021","Dark Far","original","yellow",256,1,TRUE,89.8631499059216,1,"Fall"
"943","FA23_1021","Dark Far","original","orange",257,2,TRUE,35.2725044191561,2,"Fall"
"944","FA23_1021","Dark Far","original","yellow",258,7,FALSE,91.7992108380804,7,"Fall"
"945","FA23_1021","Dark Far","original","purple",259,-7,TRUE,41.0078129351936,7,"Fall"
"946","FA23_1021","Dark Far","original","orange",260,-5,FALSE,31.5025803225099,5,"Fall"
"947","FA23_1021","Dark Far","original","violet",261,-2,TRUE,73.047029572015,2,"Fall"
"948","FA23_1021","Dark Far","original","violet",262,-2,TRUE,73.047029572015,2,"Fall"
"949","FA23_1021","Dark Far","original","purple",263,-14,FALSE,43.6971349486163,14,"Fall"
"950","FA23_1021","Dark Far","original","yellow",264,1,TRUE,89.8631499059216,1,"Fall"
"951","FA23_1021","Dark Far","original","purple",265,-10,TRUE,42.1955353550034,10,"Fall"
"952","FA23_1021","Dark Far","original","violet",266,2,TRUE,71.4139363665722,2,"Fall"
"953","FA23_1021","Dark Far","original","yellow",267,3,TRUE,90.5166340400219,3,"Fall"
"954","FA23_1021","Dark Far","original","orange",268,3,TRUE,35.7814125699222,3,"Fall"
"955","FA23_1021","Dark Far","original","orange",269,2,TRUE,35.2725044191561,2,"Fall"
"956","FA23_1022","Light Far","original","yellow",0,-175,FALSE,81.5029744266413,175,"Fall"
"957","FA23_1022","Light Far","original","yellow",1,-18,FALSE,11.9325121142908,18,"Fall"
"958","FA23_1022","Light Far","original","purple",2,-20,FALSE,8.26082782960891,20,"Fall"
"959","FA23_1022","Light Far","original","violet",3,-7,TRUE,2.2474031639334,7,"Fall"
"960","FA23_1022","Light Far","original","orange",4,-142,FALSE,55.6760134270474,142,"Fall"
"961","FA23_1022","Light Far","original","violet",5,-11,FALSE,3.4741527236759,11,"Fall"
"962","FA23_1022","Light Far","original","orange",6,-84,FALSE,43.1646214022392,84,"Fall"
"963","FA23_1022","Light Far","original","purple",7,9,TRUE,4.15040480281943,9,"Fall"
"964","FA23_1022","Light Far","original","violet",8,18,FALSE,6.38164404700918,18,"Fall"
"965","FA23_1022","Light Far","original","yellow",9,28,FALSE,17.9147831549627,28,"Fall"
"966","FA23_1022","Light Far","original","orange",10,54,FALSE,30.9727614027228,54,"Fall"
"967","FA23_1022","Light Far","original","orange",11,78,FALSE,45.565686409028,78,"Fall"
"968","FA23_1022","Light Far","original","yellow",12,27,FALSE,16.7067612050715,27,"Fall"
"969","FA23_1022","Light Far","original","violet",13,18,FALSE,6.38164404700918,18,"Fall"
"970","FA23_1022","Light Far","original","purple",14,-63,FALSE,21.9202750081715,63,"Fall"
"971","FA23_1022","Light Far","original","purple",15,-83,FALSE,27.6104842427506,83,"Fall"
"972","FA23_1022","Light Far","original","violet",16,31,FALSE,11.4730961758492,31,"Fall"
"973","FA23_1022","Light Far","original","purple",17,-27,FALSE,10.869072181774,27,"Fall"
"974","FA23_1022","Light Far","original","purple",18,-8,TRUE,3.45395985414324,8,"Fall"
"975","FA23_1022","Light Far","original","yellow",19,-12,FALSE,8.00750825791257,12,"Fall"
"976","FA23_1022","Light Far","original","orange",20,56,FALSE,32.219590018881,56,"Fall"
"977","FA23_1022","Light Far","original","yellow",21,22,FALSE,11.6162263360557,22,"Fall"
"978","FA23_1022","Light Far","original","orange",22,33,FALSE,18.511744650787,33,"Fall"
"979","FA23_1022","Light Far","original","violet",23,62,FALSE,25.2501550654179,62,"Fall"
"980","FA23_1022","Light Far","original","violet",24,44,FALSE,16.9503280878903,44,"Fall"
"981","FA23_1022","Light Far","original","orange",25,54,FALSE,30.9727614027228,54,"Fall"
"982","FA23_1022","Light Far","original","orange",26,16,FALSE,9.04180083824631,16,"Fall"
"983","FA23_1022","Light Far","original","purple",27,-41,FALSE,15.6509900686612,41,"Fall"
"984","FA23_1022","Light Far","original","yellow",28,14,FALSE,6.53168527186293,14,"Fall"
"985","FA23_1022","Light Far","original","violet",29,15,FALSE,5.26178428758741,15,"Fall"
"986","FA23_1022","Light Far","original","purple",30,-15,FALSE,6.31034962892959,15,"Fall"
"987","FA23_1022","Light Far","original","yellow",31,17,FALSE,7.96061140602401,17,"Fall"
"988","FA23_1022","Light Far","original","yellow",32,-7,FALSE,4.6749024913049,7,"Fall"
"989","FA23_1022","Light Far","original","purple",33,-69,FALSE,23.4811972070288,69,"Fall"
"990","FA23_1022","Light Far","original","purple",34,-6,TRUE,2.60998512214765,6,"Fall"
"991","FA23_1022","Light Far","original","violet",35,59,FALSE,23.8013759086544,59,"Fall"
"992","FA23_1022","Light Far","original","violet",36,0,TRUE,0,0,"Fall"
"993","FA23_1022","Light Far","original","orange",37,31,FALSE,17.380707146475,31,"Fall"
"994","FA23_1022","Light Far","original","orange",38,-5,FALSE,2.96775842103851,5,"Fall"
"995","FA23_1022","Light Far","original","yellow",39,7,FALSE,4.51979256221399,7,"Fall"
"996","FA23_1022","Light Far","original","orange",40,46,FALSE,26.0890022689046,46,"Fall"
"997","FA23_1022","Light Far","original","yellow",41,27,FALSE,16.7067612050715,27,"Fall"
"998","FA23_1022","Light Far","original","violet",42,-18,FALSE,5.56855055496131,18,"Fall"
"999","FA23_1022","Light Far","original","purple",43,-31,FALSE,12.2953977480231,31,"Fall"
"1000","FA23_1022","Light Far","original","violet",44,32,FALSE,11.8805673003484,32,"Fall"
"1001","FA23_1022","Light Far","original","purple",45,-6,TRUE,2.60998512214765,6,"Fall"
"1002","FA23_1022","Light Far","original","orange",46,58,FALSE,33.4754187120292,58,"Fall"
"1003","FA23_1022","Light Far","original","yellow",47,21,FALSE,10.7715955964395,21,"Fall"
"1004","FA23_1022","Light Far","original","yellow",48,-28,FALSE,18.1835221635726,28,"Fall"
"1005","FA23_1022","Light Far","original","orange",49,83,FALSE,43.1760730254263,83,"Fall"
"1006","FA23_1022","Light Far","original","orange",50,20,FALSE,11.2521712827895,20,"Fall"
"1007","FA23_1022","Light Far","original","violet",51,35,FALSE,13.1165955278288,35,"Fall"
"1008","FA23_1022","Light Far","original","yellow",52,-28,FALSE,18.1835221635726,28,"Fall"
"1009","FA23_1022","Light Far","original","purple",53,-2,TRUE,0.883302341018886,2,"Fall"
"1010","FA23_1022","Light Far","original","purple",54,-2,TRUE,0.883302341018886,2,"Fall"
"1011","FA23_1022","Light Far","original","violet",55,25,FALSE,9.07559490795246,25,"Fall"
"1012","FA23_1022","Light Far","original","orange",56,28,FALSE,15.6948298194222,28,"Fall"
"1013","FA23_1022","Light Far","original","yellow",57,-31,FALSE,19.9819447352622,31,"Fall"
"1014","FA23_1022","Light Far","original","yellow",58,6,TRUE,3.88910631784857,6,"Fall"
"1015","FA23_1022","Light Far","original","violet",59,17,FALSE,6.00599812406953,17,"Fall"
"1016","FA23_1022","Light Far","original","purple",60,-12,FALSE,5.10444835329095,12,"Fall"
"1017","FA23_1022","Light Far","original","violet",61,21,FALSE,7.52244368519231,21,"Fall"
"1018","FA23_1022","Light Far","original","orange",62,43,FALSE,24.3028707491168,43,"Fall"
"1019","FA23_1022","Light Far","original","purple",63,-17,FALSE,7.09937097134519,17,"Fall"
"1020","FA23_1022","Light Far","original","purple",64,-6,TRUE,2.60998512214765,6,"Fall"
"1021","FA23_1022","Light Far","original","orange",65,16,FALSE,9.04180083824631,16,"Fall"
"1022","FA23_1022","Light Far","original","yellow",66,5,TRUE,3.25390275589663,5,"Fall"
"1023","FA23_1022","Light Far","original","purple",67,0,TRUE,0,0,"Fall"
"1024","FA23_1022","Light Far","original","orange",68,-24,FALSE,14.6483195732284,24,"Fall"
"1025","FA23_1022","Light Far","original","violet",69,16,FALSE,5.63270479716113,16,"Fall"
"1026","FA23_1022","Light Far","original","yellow",70,-6,TRUE,4.00254600606027,6,"Fall"
"1027","FA23_1022","Light Far","original","violet",71,5,TRUE,1.68847397976124,5,"Fall"
"1028","FA23_1022","Light Far","original","purple",72,13,FALSE,6.09370141698882,13,"Fall"
"1029","FA23_1022","Light Far","original","violet",73,9,FALSE,3.08743555066801,9,"Fall"
"1030","FA23_1022","Light Far","original","purple",74,-5,TRUE,2.18320856494515,5,"Fall"
"1031","FA23_1022","Light Far","original","violet",75,9,FALSE,3.08743555066801,9,"Fall"
"1032","FA23_1022","Light Far","original","yellow",76,-2,TRUE,1.3272432783232,2,"Fall"
"1033","FA23_1022","Light Far","original","orange",77,13,FALSE,7.37983318077952,13,"Fall"
"1034","FA23_1022","Light Far","original","orange",78,-22,FALSE,13.429927683511,22,"Fall"
"1035","FA23_1022","Light Far","original","yellow",79,2,TRUE,1.31462534419722,2,"Fall"
"1036","FA23_1022","Light Far","original","orange",80,-38,FALSE,22.760695441199,38,"Fall"
"1037","FA23_1022","Light Far","original","purple",81,2,TRUE,0.897050614930159,2,"Fall"
"1038","FA23_1022","Light Far","original","yellow",82,0,TRUE,0,0,"Fall"
"1039","FA23_1022","Light Far","original","violet",83,-5,TRUE,1.61915345601561,5,"Fall"
"1040","FA23_1022","Light Far","original","purple",84,9,TRUE,4.15040480281943,9,"Fall"
"1041","FA23_1022","Light Far","original","violet",85,8,FALSE,2.73383135661251,8,"Fall"
"1042","FA23_1022","Light Far","original","orange",86,20,FALSE,11.2521712827895,20,"Fall"
"1043","FA23_1022","Light Far","original","yellow",87,6,TRUE,3.88910631784857,6,"Fall"
"1044","FA23_1022","Light Far","original","violet",88,1,TRUE,0.332249037881992,1,"Fall"
"1045","FA23_1022","Light Far","original","purple",89,4,TRUE,1.80821107832794,4,"Fall"
"1046","FA23_1022","Light Far","original","yellow",90,1,TRUE,0.657885287235583,1,"Fall"
"1047","FA23_1022","Light Far","original","violet",91,-8,TRUE,2.55769969257705,8,"Fall"
"1048","FA23_1022","Light Far","original","orange",92,29,FALSE,16.2544447894114,29,"Fall"
"1049","FA23_1022","Light Far","original","orange",93,6,FALSE,3.45609619211873,6,"Fall"
"1050","FA23_1022","Light Far","original","purple",94,10,TRUE,4.63027536305798,10,"Fall"
"1051","FA23_1022","Light Far","original","yellow",95,1,TRUE,0.657885287235583,1,"Fall"
"1052","FA23_1022","Light Far","original","orange",96,43,FALSE,24.3028707491168,43,"Fall"
"1053","FA23_1022","Light Far","original","violet",97,-9,FALSE,2.86545486299818,9,"Fall"
"1054","FA23_1022","Light Far","original","purple",98,7,TRUE,3.20225226792137,7,"Fall"
"1055","FA23_1022","Light Far","original","violet",99,4,TRUE,1.34530917524152,4,"Fall"
"1056","FA23_1022","Light Far","original","yellow",100,7,FALSE,4.51979256221399,7,"Fall"
"1057","FA23_1022","Light Far","original","orange",101,12,FALSE,6.82413469960483,12,"Fall"
"1058","FA23_1022","Light Far","original","yellow",102,3,TRUE,1.96531583104478,3,"Fall"
"1059","FA23_1022","Light Far","original","purple",103,3,TRUE,1.35084359684968,3,"Fall"
"1060","FA23_1022","Light Far","original","violet",104,1,TRUE,0.332249037881992,1,"Fall"
"1061","FA23_1022","Light Far","original","violet",105,3,TRUE,1.00486225630451,3,"Fall"
"1062","FA23_1022","Light Far","original","purple",106,13,FALSE,6.09370141698882,13,"Fall"
"1063","FA23_1022","Light Far","original","orange",107,-5,FALSE,2.96775842103851,5,"Fall"
"1064","FA23_1022","Light Far","original","yellow",108,0,TRUE,0,0,"Fall"
"1065","FA23_1022","Light Far","original","yellow",109,0,TRUE,0,0,"Fall"
"1066","FA23_1022","Light Far","original","orange",110,16,FALSE,9.04180083824631,16,"Fall"
"1067","FA23_1022","Light Far","original","purple",111,12,FALSE,5.60187065191152,12,"Fall"
"1068","FA23_1022","Light Far","original","violet",112,9,FALSE,3.08743555066801,9,"Fall"
"1069","FA23_1022","Light Far","original","violet",113,-1,TRUE,0.329459377156701,1,"Fall"
"1070","FA23_1022","Light Far","original","purple",114,1,TRUE,0.446784739046279,1,"Fall"
"1071","FA23_1022","Light Far","original","yellow",115,2,TRUE,1.31462534419722,2,"Fall"
"1072","FA23_1022","Light Far","original","purple",116,5,TRUE,2.26920171536078,5,"Fall"
"1073","FA23_1022","Light Far","original","yellow",117,7,FALSE,4.51979256221399,7,"Fall"
"1074","FA23_1022","Light Far","original","orange",118,-4,FALSE,2.36750217904499,4,"Fall"
"1075","FA23_1022","Light Far","original","orange",119,-10,FALSE,6.0124896225185,10,"Fall"
"1076","FA23_1022","Light Far","original","violet",120,-1,TRUE,0.329459377156701,1,"Fall"
"1077","FA23_1022","Light Far","original","yellow",121,3,TRUE,1.96531583104478,3,"Fall"
"1078","FA23_1022","Light Far","original","violet",122,-2,TRUE,0.656078327568269,2,"Fall"
"1079","FA23_1022","Light Far","original","orange",123,-14,FALSE,8.48526048260986,14,"Fall"
"1080","FA23_1022","Light Far","original","orange",124,-27,FALSE,16.4530647299934,27,"Fall"
"1081","FA23_1022","Light Far","original","purple",125,5,TRUE,2.26920171536078,5,"Fall"
"1082","FA23_1022","Light Far","original","purple",126,9,TRUE,4.15040480281943,9,"Fall"
"1083","FA23_1022","Light Far","original","yellow",127,1,TRUE,0.657885287235583,1,"Fall"
"1084","FA23_1022","Light Far","original","orange",128,19,FALSE,10.7000939117049,19,"Fall"
"1085","FA23_1022","Light Far","original","violet",129,-3,TRUE,0.979846848708749,3,"Fall"
"1086","FA23_1022","Light Far","original","purple",130,12,FALSE,5.60187065191152,12,"Fall"
"1087","FA23_1022","Light Far","original","purple",131,-3,TRUE,1.31990434541868,3,"Fall"
"1088","FA23_1022","Light Far","original","orange",132,-9,FALSE,5.39842433488564,9,"Fall"
"1089","FA23_1022","Light Far","original","yellow",133,3,TRUE,1.96531583104478,3,"Fall"
"1090","FA23_1022","Light Far","original","violet",134,-5,TRUE,1.61915345601561,5,"Fall"
"1091","FA23_1022","Light Far","original","yellow",135,7,FALSE,4.51979256221399,7,"Fall"
"1092","FA23_1022","Light Far","original","violet",136,-2,TRUE,0.656078327568269,2,"Fall"
"1093","FA23_1022","Light Far","original","orange",137,-15,FALSE,9.1057020254511,15,"Fall"
"1094","FA23_1022","Light Far","original","orange",138,-10,FALSE,6.0124896225185,10,"Fall"
"1095","FA23_1022","Light Far","original","purple",139,7,TRUE,3.20225226792137,7,"Fall"
"1096","FA23_1022","Light Far","original","yellow",140,-6,TRUE,4.00254600606027,6,"Fall"
"1097","FA23_1022","Light Far","original","yellow",141,-5,TRUE,3.3347969309592,5,"Fall"
"1098","FA23_1022","Light Far","original","purple",142,4,TRUE,1.80821107832794,4,"Fall"
"1099","FA23_1022","Light Far","original","violet",143,-5,TRUE,1.61915345601561,5,"Fall"
"1100","FA23_1022","Light Far","original","yellow",144,-2,TRUE,1.3272432783232,2,"Fall"
"1101","FA23_1022","Light Far","original","violet",145,3,TRUE,1.00486225630451,3,"Fall"
"1102","FA23_1022","Light Far","original","yellow",146,-5,TRUE,3.3347969309592,5,"Fall"
"1103","FA23_1022","Light Far","original","orange",147,4,TRUE,2.31560526461955,4,"Fall"
"1104","FA23_1022","Light Far","original","orange",148,4,TRUE,2.31560526461955,4,"Fall"
"1105","FA23_1022","Light Far","original","purple",149,16,FALSE,7.59409048890769,16,"Fall"
"1106","FA23_1022","Light Far","original","violet",150,6,TRUE,2.03432315090061,6,"Fall"
"1107","FA23_1022","Light Far","original","purple",151,7,TRUE,3.20225226792137,7,"Fall"
"1108","FA23_1022","Light Far","original","purple",152,8,TRUE,3.67441469798969,8,"Fall"
"1109","FA23_1022","Light Far","original","orange",153,2,TRUE,1.16390252198921,2,"Fall"
"1110","FA23_1022","Light Far","original","purple",154,15,FALSE,7.0897649900206,15,"Fall"
"1111","FA23_1022","Light Far","original","yellow",155,3,TRUE,1.96531583104478,3,"Fall"
"1112","FA23_1022","Light Far","original","violet",156,-10,FALSE,3.1707851043467,10,"Fall"
"1113","FA23_1022","Light Far","original","orange",157,18,FALSE,10.1479085174254,18,"Fall"
"1114","FA23_1022","Light Far","original","yellow",158,4,TRUE,2.61233879273184,4,"Fall"
"1115","FA23_1022","Light Far","original","violet",159,-7,TRUE,2.2474031639334,7,"Fall"
"1116","FA23_1022","Light Far","original","yellow",160,3,TRUE,1.96531583104478,3,"Fall"
"1117","FA23_1022","Light Far","original","yellow",161,4,TRUE,2.61233879273184,4,"Fall"
"1118","FA23_1022","Light Far","original","violet",162,-12,FALSE,3.77554024420659,12,"Fall"
"1119","FA23_1022","Light Far","original","violet",163,-5,TRUE,1.61915345601561,5,"Fall"
"1120","FA23_1022","Light Far","original","orange",164,25,FALSE,14.0216237785508,25,"Fall"
"1121","FA23_1022","Light Far","original","purple",165,12,FALSE,5.60187065191152,12,"Fall"
"1122","FA23_1022","Light Far","original","purple",166,2,TRUE,0.897050614930159,2,"Fall"
"1123","FA23_1022","Light Far","original","orange",167,13,FALSE,7.37983318077952,13,"Fall"
"1124","FA23_1022","Light Far","original","yellow",168,3,TRUE,1.96531583104478,3,"Fall"
"1125","FA23_1022","Light Far","original","orange",169,-4,FALSE,2.36750217904499,4,"Fall"
"1126","FA23_1022","Light Far","original","orange",170,14,FALSE,7.93451876566769,14,"Fall"
"1127","FA23_1022","Light Far","original","purple",171,0,TRUE,0,0,"Fall"
"1128","FA23_1022","Light Far","original","yellow",172,0,TRUE,0,0,"Fall"
"1129","FA23_1022","Light Far","original","purple",173,10,TRUE,4.63027536305798,10,"Fall"
"1130","FA23_1022","Light Far","original","violet",174,1,TRUE,0.332249037881992,1,"Fall"
"1131","FA23_1022","Light Far","original","violet",175,2,TRUE,0.667165467393161,2,"Fall"
"1132","FA23_1022","Light Far","original","orange",176,21,FALSE,11.804765675503,21,"Fall"
"1133","FA23_1022","Light Far","original","violet",177,-10,FALSE,3.1707851043467,10,"Fall"
"1134","FA23_1022","Light Far","original","yellow",178,-7,FALSE,4.6749024913049,7,"Fall"
"1135","FA23_1022","Light Far","original","purple",179,1,TRUE,0.446784739046279,1,"Fall"
"1136","FA23_1022","Light Far","original","orange",180,-7,FALSE,4.17724223582447,7,"Fall"
"1137","FA23_1022","Light Far","original","violet",181,-4,TRUE,1.30084925436631,4,"Fall"
"1138","FA23_1022","Light Far","original","yellow",182,-5,TRUE,3.3347969309592,5,"Fall"
"1139","FA23_1022","Light Far","original","purple",183,13,FALSE,6.09370141698882,13,"Fall"
"1140","FA23_1022","Light Far","original","purple",184,8,TRUE,3.67441469798969,8,"Fall"
