"","color_position","Participant_ID","Condition","condition_str","participant_number","trials_gen.thisTrialN","gen_response_color_index_in_orig_colorbar_space","gen_response_distance_idx","gen_response_distance_dE","gen_signed_distance_idx","trial_within_test_color","idx_for_graph","exemplar_position","color_to_prototype_distance_idx","color_to_prototype_de"
"1",10,"SU23_1000",1,"Light Far",1000,0,224,214,94.6471964828548,214,1,6,52,-42,15
"2",203,"SU23_1000",1,"Light Far",1000,1,203,0,0,0,1,199,226,-23,15
"3",158,"SU23_1000",1,"Light Far",1000,2,141,17,10.3464885153762,-17,1,154,158,0,0
"4",29,"SU23_1000",1,"Light Far",1000,3,49,20,6.19817374288961,20,1,25,52,-23,7
"5",10,"SU23_1000",1,"Light Far",1000,4,86,76,25.0957303377746,76,2,8,52,-42,15
"6",123,"SU23_1000",1,"Light Far",1000,5,175,52,29.8345202873169,52,1,119,93,30,15
"7",203,"SU23_1000",1,"Light Far",1000,6,223,20,13.1034919601396,20,2,201,226,-23,15
"8",158,"SU23_1000",1,"Light Far",1000,7,159,1,0.583524781404395,1,2,156,158,0,0
"9",52,"SU23_1000",1,"Light Far",1000,8,39,13,4.07538548350744,-13,1,48,52,0,0
"10",185,"SU23_1000",1,"Light Far",1000,9,216,31,19.0863478510288,31,1,181,158,27,15
"11",146,"SU23_1000",1,"Light Far",1000,10,159,13,7.82389027389358,13,1,142,158,-12,7
"12",251,"SU23_1000",1,"Light Far",1000,11,223,28,15.2097725315521,-28,1,247,226,25,15
"13",216,"SU23_1000",1,"Light Far",1000,12,217,1,0.664428961246374,1,1,212,226,-10,7
"14",76,"SU23_1000",1,"Light Far",1000,13,69,7,2.69656756232991,-7,1,72,93,-17,7
"15",108,"SU23_1000",1,"Light Far",1000,14,69,39,16.678678624075,-39,1,104,93,15,7
"16",226,"SU23_1000",1,"Light Far",1000,15,220,6,4.00254600606027,-6,1,222,226,0,0
"17",241,"SU23_1000",1,"Light Far",1000,16,216,25,12.8281701992511,-25,1,237,226,15,7
"18",185,"SU23_1000",1,"Light Far",1000,17,216,31,19.0863478510288,31,2,183,158,27,15
"19",108,"SU23_1000",1,"Light Far",1000,18,58,50,20.4686818606781,-50,2,106,93,15,7
"20",216,"SU23_1000",1,"Light Far",1000,19,210,6,3.95515940378968,-6,2,214,226,-10,7
"21",72,"SU23_1000",1,"Light Far",1000,20,60,12,4.41774407769949,-12,1,68,52,20,7
"22",93,"SU23_1000",1,"Light Far",1000,21,60,33,12.9907962711284,-33,1,89,93,0,0
"23",72,"SU23_1000",1,"Light Far",1000,22,60,12,4.41774407769949,-12,2,70,52,20,7
"24",146,"SU23_1000",1,"Light Far",1000,23,159,13,7.82389027389358,13,2,144,158,-12,7
"25",170,"SU23_1000",1,"Light Far",1000,24,151,19,10.9454222900379,-19,1,166,158,12,7
"26",52,"SU23_1000",1,"Light Far",1000,25,35,17,5.26855326060142,-17,2,50,52,0,0
"27",133,"SU23_1000",1,"Light Far",1000,26,188,55,30.8833246996939,55,1,129,158,-25,15
"28",93,"SU23_1000",1,"Light Far",1000,27,54,39,15.0045935699944,-39,2,91,93,0,0
"29",251,"SU23_1000",1,"Light Far",1000,28,228,23,14.1186822007768,-23,2,249,226,25,15
"30",226,"SU23_1000",1,"Light Far",1000,29,222,4,2.66274915716473,-4,2,224,226,0,0
"31",76,"SU23_1000",1,"Light Far",1000,30,66,10,3.81215444278672,-10,2,74,93,-17,7
"32",123,"SU23_1000",1,"Light Far",1000,31,162,39,23.2537211408301,39,2,121,93,30,15
"33",241,"SU23_1000",1,"Light Far",1000,32,217,24,12.2230050818788,-24,2,239,226,15,7
"34",29,"SU23_1000",1,"Light Far",1000,33,29,0,0,0,2,27,52,-23,7
"35",170,"SU23_1000",1,"Light Far",1000,34,151,19,10.9454222900379,-19,2,168,158,12,7
"36",133,"SU23_1000",1,"Light Far",1000,35,140,7,4.37776749861618,7,2,131,158,-25,15
"37",216,"SU23_1000",1,"Light Far",1000,36,202,14,9.04750535505546,-14,3,216,226,-10,7
"38",29,"SU23_1000",1,"Light Far",1000,37,34,5,1.72364976891318,5,3,29,52,-23,7
"39",76,"SU23_1000",1,"Light Far",1000,38,67,9,3.44299887466722,-9,3,76,93,-17,7
"40",10,"SU23_1000",1,"Light Far",1000,39,11,1,0.553595451813769,1,3,10,52,-42,15
"41",203,"SU23_1000",1,"Light Far",1000,40,224,21,13.7742275625034,21,3,203,226,-23,15
"42",216,"SU23_1000",1,"Light Far",1000,41,218,2,1.33485063038851,2,4,218,226,-10,7
"43",93,"SU23_1000",1,"Light Far",1000,42,72,21,8.64213402831139,-21,3,93,93,0,0
"44",72,"SU23_1000",1,"Light Far",1000,43,75,3,1.16376041663223,3,3,72,52,20,7
"45",133,"SU23_1000",1,"Light Far",1000,44,202,69,38.1584491785696,69,3,133,158,-25,15
"46",72,"SU23_1000",1,"Light Far",1000,45,54,18,6.47708493451551,-18,4,74,52,20,7
"47",203,"SU23_1000",1,"Light Far",1000,46,224,21,13.7742275625034,21,4,205,226,-23,15
"48",251,"SU23_1000",1,"Light Far",1000,47,223,28,15.2097725315521,-28,3,251,226,25,15
"49",93,"SU23_1000",1,"Light Far",1000,48,58,35,13.6742675952537,-35,4,95,93,0,0
"50",170,"SU23_1000",1,"Light Far",1000,49,169,1,0.560775153537654,-1,3,170,158,12,7
"51",146,"SU23_1000",1,"Light Far",1000,50,169,23,13.4050827306881,23,3,146,158,-12,7
"52",123,"SU23_1000",1,"Light Far",1000,51,152,29,17.6898225034023,29,3,123,93,30,15
"53",10,"SU23_1000",1,"Light Far",1000,52,14,4,2.20053803069266,4,4,12,52,-42,15
"54",52,"SU23_1000",1,"Light Far",1000,53,39,13,4.07538548350744,-13,3,52,52,0,0
"55",158,"SU23_1000",1,"Light Far",1000,54,204,46,26.0890022689046,46,3,158,158,0,0
"56",185,"SU23_1000",1,"Light Far",1000,55,221,36,22.40446844632,36,3,185,158,27,15
"57",108,"SU23_1000",1,"Light Far",1000,56,56,52,21.1184069684217,-52,3,108,93,15,7
"58",241,"SU23_1000",1,"Light Far",1000,57,219,22,11.01108433217,-22,3,241,226,15,7
"59",158,"SU23_1000",1,"Light Far",1000,58,159,1,0.583524781404395,1,4,160,158,0,0
"60",185,"SU23_1000",1,"Light Far",1000,59,168,17,9.53918044041868,-17,4,187,158,27,15
"61",29,"SU23_1000",1,"Light Far",1000,60,27,2,0.782991355359103,-2,4,31,52,-23,7
"62",226,"SU23_1000",1,"Light Far",1000,61,219,7,4.6749024913049,-7,3,226,226,0,0
"63",108,"SU23_1000",1,"Light Far",1000,62,76,32,14.0761443875026,-32,4,110,93,15,7
"64",133,"SU23_1000",1,"Light Far",1000,63,73,60,28.5785066023559,-60,4,135,158,-25,15
"65",123,"SU23_1000",1,"Light Far",1000,64,73,50,22.9433949469395,-50,4,125,93,30,15
"66",52,"SU23_1000",1,"Light Far",1000,65,34,18,5.56855055496131,-18,4,54,52,0,0
"67",251,"SU23_1000",1,"Light Far",1000,66,229,22,13.9693500414184,-22,4,253,226,25,15
"68",226,"SU23_1000",1,"Light Far",1000,67,228,2,1.31462534419722,2,4,228,226,0,0
"69",146,"SU23_1000",1,"Light Far",1000,68,162,16,9.53311872173206,16,4,148,158,-12,7
"70",170,"SU23_1000",1,"Light Far",1000,69,164,6,3.38143454060384,-6,4,172,158,12,7
"71",241,"SU23_1000",1,"Light Far",1000,70,231,10,4.58384082264774,-10,4,243,226,15,7
"72",76,"SU23_1000",1,"Light Far",1000,71,65,11,4.17858219230991,-11,4,78,93,-17,7
"73",185,"SU23_1000",1,"Light Far",1000,72,198,13,7.65151611135013,13,5,189,158,27,15
"74",93,"SU23_1000",1,"Light Far",1000,73,50,43,16.2846531673015,-43,5,97,93,0,0
"75",108,"SU23_1000",1,"Light Far",1000,74,50,58,22.9923323909453,-58,5,112,93,15,7
"76",158,"SU23_1000",1,"Light Far",1000,75,171,13,7.37983318077952,13,5,162,158,0,0
"77",241,"SU23_1000",1,"Light Far",1000,76,229,12,5.41695871961518,-12,5,245,226,15,7
"78",10,"SU23_1000",1,"Light Far",1000,77,18,8,4.32981112292014,8,5,14,52,-42,15
"79",93,"SU23_1000",1,"Light Far",1000,78,77,16,6.70634041490906,-16,6,99,93,0,0
"80",52,"SU23_1000",1,"Light Far",1000,79,33,19,5.87081035690245,-19,5,56,52,0,0
"81",133,"SU23_1000",1,"Light Far",1000,80,166,33,19.6232472450849,33,5,137,158,-25,15
"82",146,"SU23_1000",1,"Light Far",1000,81,169,23,13.4050827306881,23,5,150,158,-12,7
"83",72,"SU23_1000",1,"Light Far",1000,82,58,14,5.11574653222344,-14,5,76,52,20,7
"84",76,"SU23_1000",1,"Light Far",1000,83,58,18,6.66549511243245,-18,5,80,93,-17,7
"85",29,"SU23_1000",1,"Light Far",1000,84,25,4,1.62749058380606,-4,5,33,52,-23,7
"86",226,"SU23_1000",1,"Light Far",1000,85,230,4,2.61233879273184,4,5,230,226,0,0
"87",203,"SU23_1000",1,"Light Far",1000,86,216,13,8.42320226703444,13,5,207,226,-23,15
"88",185,"SU23_1000",1,"Light Far",1000,87,214,29,17.7696645602889,29,6,191,158,27,15
"89",52,"SU23_1000",1,"Light Far",1000,88,56,4,1.34530917524152,4,6,58,52,0,0
"90",170,"SU23_1000",1,"Light Far",1000,89,202,32,18.4121929835085,32,5,174,158,12,7
"91",10,"SU23_1001",2,"Dark Far",1001,0,10,0,0,0,1,6,52,-42,15
"92",203,"SU23_1001",2,"Dark Far",1001,1,199,4,1.34530917524152,-4,1,199,226,-23,15
"93",158,"SU23_1001",2,"Dark Far",1001,2,157,1,0.461306303442498,-1,1,154,158,0,0
"94",29,"SU23_1001",2,"Dark Far",1001,3,33,4,2.66274915716473,4,1,25,52,-23,7
"95",10,"SU23_1001",2,"Dark Far",1001,4,9,1,0.992418584055833,-1,2,8,52,-42,15
"96",123,"SU23_1001",2,"Dark Far",1001,5,126,3,1.83764674653087,3,1,119,93,30,15
"97",203,"SU23_1001",2,"Dark Far",1001,6,192,11,3.8022941809984,-11,2,201,226,-23,15
"98",158,"SU23_1001",2,"Dark Far",1001,7,160,2,0.911406381676915,2,2,156,158,0,0
"99",52,"SU23_1001",2,"Dark Far",1001,8,85,33,19.0242315631026,33,1,48,52,0,0
"100",185,"SU23_1001",2,"Dark Far",1001,9,190,5,1.86171145882996,5,1,181,158,27,15
"101",146,"SU23_1001",2,"Dark Far",1001,10,151,5,2.49590667463077,5,1,142,158,-12,7
"102",251,"SU23_1001",2,"Dark Far",1001,11,252,1,2.3914883485369,1,1,247,226,25,15
"103",216,"SU23_1001",2,"Dark Far",1001,12,200,16,5.0717555719729,-16,1,212,226,-10,7
"104",76,"SU23_1001",2,"Dark Far",1001,13,108,32,18.1933086422453,32,1,72,93,-17,7
"105",108,"SU23_1001",2,"Dark Far",1001,14,123,15,9.35788819783864,15,1,104,93,15,7
"106",226,"SU23_1001",2,"Dark Far",1001,15,219,7,2.34585354012015,-7,1,222,226,0,0
"107",241,"SU23_1001",2,"Dark Far",1001,16,235,6,3.1642685642444,-6,1,237,226,15,7
"108",185,"SU23_1001",2,"Dark Far",1001,17,166,19,7.66207471719716,-19,2,183,158,27,15
"109",108,"SU23_1001",2,"Dark Far",1001,18,77,31,17.657035991265,-31,2,106,93,15,7
"110",216,"SU23_1001",2,"Dark Far",1001,19,207,9,2.78360496315003,-9,2,214,226,-10,7
"111",72,"SU23_1001",2,"Dark Far",1001,20,89,17,9.52205457426465,17,1,68,52,20,7
"112",93,"SU23_1001",2,"Dark Far",1001,21,126,33,19.8340196076235,33,1,89,93,0,0
"113",72,"SU23_1001",2,"Dark Far",1001,22,107,35,19.7624100036647,35,2,70,52,20,7
"114",146,"SU23_1001",2,"Dark Far",1001,23,162,16,7.59409048890769,16,2,144,158,-12,7
"115",170,"SU23_1001",2,"Dark Far",1001,24,182,12,4.82788714270904,12,1,166,158,12,7
"116",52,"SU23_1001",2,"Dark Far",1001,25,90,38,21.7248589794319,38,2,50,52,0,0
"117",133,"SU23_1001",2,"Dark Far",1001,26,141,8,4.46080068555555,8,1,129,158,-25,15
"118",93,"SU23_1001",2,"Dark Far",1001,27,109,16,9.53311872173206,16,2,91,93,0,0
"119",251,"SU23_1001",2,"Dark Far",1001,28,251,0,0,0,2,249,226,25,15
"120",226,"SU23_1001",2,"Dark Far",1001,29,210,16,4.99889330681402,-16,2,224,226,0,0
"121",76,"SU23_1001",2,"Dark Far",1001,30,102,26,14.6868789735823,26,2,74,93,-17,7
"122",123,"SU23_1001",2,"Dark Far",1001,31,145,22,12.5459610733608,22,2,121,93,30,15
"123",241,"SU23_1001",2,"Dark Far",1001,32,245,4,2.20053803069266,4,2,239,226,15,7
"124",29,"SU23_1001",2,"Dark Far",1001,33,15,14,6.53168527186293,-14,2,27,52,-23,7
"125",170,"SU23_1001",2,"Dark Far",1001,34,185,15,5.97129010607492,15,2,168,158,12,7
"126",133,"SU23_1001",2,"Dark Far",1001,35,104,29,17.6729516914106,-29,2,131,158,-25,15
"127",216,"SU23_1001",2,"Dark Far",1001,36,205,11,3.42427553306538,-11,3,216,226,-10,7
"128",29,"SU23_1001",2,"Dark Far",1001,37,12,17,7.96061140602401,-17,3,29,52,-23,7
"129",76,"SU23_1001",2,"Dark Far",1001,38,103,27,15.2682371655803,27,3,76,93,-17,7
"130",10,"SU23_1001",2,"Dark Far",1001,39,1,9,10.941393654034,-9,3,10,52,-42,15
"131",203,"SU23_1001",2,"Dark Far",1001,40,199,4,1.34530917524152,-4,3,203,226,-23,15
"132",216,"SU23_1001",2,"Dark Far",1001,41,215,1,0.30484544198998,-1,4,218,226,-10,7
"133",93,"SU23_1001",2,"Dark Far",1001,42,120,27,16.2716646129185,27,3,93,93,0,0
"134",72,"SU23_1001",2,"Dark Far",1001,43,96,24,13.4549598926096,24,3,72,52,20,7
"135",133,"SU23_1001",2,"Dark Far",1001,44,144,11,6.04323682689797,11,3,133,158,-25,15
"136",72,"SU23_1001",2,"Dark Far",1001,45,116,44,24.9571477593676,44,4,74,52,20,7
"137",203,"SU23_1001",2,"Dark Far",1001,46,196,7,2.38281993560268,-7,4,205,226,-23,15
"138",251,"SU23_1001",2,"Dark Far",1001,47,251,0,0,0,3,251,226,25,15
"139",93,"SU23_1001",2,"Dark Far",1001,48,187,94,47.3365195482252,94,4,95,93,0,0
"140",170,"SU23_1001",2,"Dark Far",1001,49,204,34,12.6128008298271,34,3,170,158,12,7
"141",146,"SU23_1001",2,"Dark Far",1001,50,142,4,2.08444365933153,-4,3,146,158,-12,7
"142",123,"SU23_1001",2,"Dark Far",1001,51,113,10,6.24949952712308,-10,3,123,93,30,15
"143",10,"SU23_1001",2,"Dark Far",1001,52,11,1,0.94779062014919,1,4,12,52,-42,15
"144",52,"SU23_1001",2,"Dark Far",1001,53,55,3,1.86323950748357,3,3,52,52,0,0
"145",158,"SU23_1001",2,"Dark Far",1001,54,204,46,17.7043768937864,46,3,158,158,0,0
"146",185,"SU23_1001",2,"Dark Far",1001,55,204,19,6.70897673184214,19,3,185,158,27,15
"147",108,"SU23_1001",2,"Dark Far",1001,56,103,5,3.07002420088501,-5,3,108,93,15,7
"148",241,"SU23_1001",2,"Dark Far",1001,57,235,6,3.1642685642444,-6,3,241,226,15,7
"149",158,"SU23_1001",2,"Dark Far",1001,58,190,32,12.9981451037492,32,4,160,158,0,0
"150",185,"SU23_1001",2,"Dark Far",1001,59,207,22,7.67225643891068,22,4,187,158,27,15
"151",29,"SU23_1001",2,"Dark Far",1001,60,17,12,5.97377786280485,-12,4,31,52,-23,7
"152",226,"SU23_1001",2,"Dark Far",1001,61,236,10,4.48767320868582,10,3,226,226,0,0
"153",108,"SU23_1001",2,"Dark Far",1001,62,84,24,13.8878860391341,-24,4,110,93,15,7
"154",133,"SU23_1001",2,"Dark Far",1001,63,124,9,5.37976255023071,-9,4,135,158,-25,15
"155",123,"SU23_1001",2,"Dark Far",1001,64,133,10,5.99478199606687,10,4,125,93,30,15
"156",52,"SU23_1001",2,"Dark Far",1001,65,78,26,15.2007663121417,26,4,54,52,0,0
"157",251,"SU23_1001",2,"Dark Far",1001,66,250,1,2.1411228555766,-1,4,253,226,25,15
"158",226,"SU23_1001",2,"Dark Far",1001,67,221,5,1.72364976891318,-5,4,228,226,0,0
"159",146,"SU23_1001",2,"Dark Far",1001,68,145,1,0.513656343494712,-1,4,148,158,-12,7
"160",170,"SU23_1001",2,"Dark Far",1001,69,169,1,0.421105166903395,-1,4,172,158,12,7
"161",241,"SU23_1001",2,"Dark Far",1001,70,227,14,6.73168117382536,-14,4,243,226,15,7
"162",76,"SU23_1001",2,"Dark Far",1001,71,85,9,5.03837361839556,9,4,78,93,-17,7
"163",185,"SU23_1001",2,"Dark Far",1001,72,197,12,4.35516942630785,12,5,189,158,27,15
"164",93,"SU23_1001",2,"Dark Far",1001,73,87,6,3.40099350156045,-6,5,97,93,0,0
"165",108,"SU23_1001",2,"Dark Far",1001,74,113,5,3.12888402816673,5,5,112,93,15,7
"166",158,"SU23_1001",2,"Dark Far",1001,75,172,14,6.08593293761055,14,5,162,158,0,0
"167",241,"SU23_1001",2,"Dark Far",1001,76,235,6,3.1642685642444,-6,5,245,226,15,7
"168",10,"SU23_1001",2,"Dark Far",1001,77,9,1,0.992418584055833,-1,5,14,52,-42,15
"169",93,"SU23_1001",2,"Dark Far",1001,78,92,1,0.572264364162911,-1,6,99,93,0,0
"170",52,"SU23_1001",2,"Dark Far",1001,79,65,13,7.85059816530783,13,5,56,52,0,0
"171",133,"SU23_1001",2,"Dark Far",1001,80,148,15,8.0761356887102,15,5,137,158,-25,15
"172",146,"SU23_1001",2,"Dark Far",1001,81,157,11,5.34010092787131,11,5,150,158,-12,7
"173",72,"SU23_1001",2,"Dark Far",1001,82,97,25,14.0216237785508,25,5,76,52,20,7
"174",76,"SU23_1001",2,"Dark Far",1001,83,95,19,10.6640941241316,19,5,80,93,-17,7
"175",29,"SU23_1001",2,"Dark Far",1001,84,36,7,4.6749024913049,7,5,33,52,-23,7
"176",226,"SU23_1001",2,"Dark Far",1001,85,228,2,0.782991355359103,2,5,230,226,0,0
"177",203,"SU23_1001",2,"Dark Far",1001,86,187,16,5.63270479716113,-16,5,207,226,-23,15
"178",185,"SU23_1001",2,"Dark Far",1001,87,177,8,3.11289988996415,-8,6,191,158,27,15
"179",52,"SU23_1001",2,"Dark Far",1001,88,65,13,7.85059816530783,13,6,58,52,0,0
"180",170,"SU23_1001",2,"Dark Far",1001,89,170,0,0,0,5,174,158,12,7
"181",10,"SU23_1002",1,"Light Far",1002,0,20,10,5.34857356,10,1,6,52,-42,15
"182",203,"SU23_1002",1,"Light Far",1002,1,195,8,4.897914951,-8,1,199,226,-23,15
"183",158,"SU23_1002",1,"Light Far",1002,2,131,27,16.45306473,-27,1,154,158,0,0
"184",29,"SU23_1002",1,"Light Far",1002,3,11,18,8.705657881,-18,1,25,52,-23,7
"185",10,"SU23_1002",1,"Light Far",1002,4,2,8,12.70272157,-8,2,8,52,-42,15
"186",123,"SU23_1002",1,"Light Far",1002,5,56,67,28.57474675,-67,1,119,93,30,15
"187",203,"SU23_1002",1,"Light Far",1002,6,202,1,0.625461918,-1,2,201,226,-23,15
"188",158,"SU23_1002",1,"Light Far",1002,7,144,14,8.485260483,-14,2,156,158,0,0
"189",52,"SU23_1002",1,"Light Far",1002,8,55,3,1.004862256,3,1,48,52,0,0
"190",185,"SU23_1002",1,"Light Far",1002,9,139,46,25.99994357,-46,1,181,158,27,15
"191",146,"SU23_1002",1,"Light Far",1002,10,120,26,15.81000007,-26,1,142,158,-12,7
"192",251,"SU23_1002",1,"Light Far",1002,11,247,4,4.731774622,-4,1,247,226,25,15
"193",216,"SU23_1002",1,"Light Far",1002,12,211,5,3.303821172,-5,1,212,226,-10,7
"194",76,"SU23_1002",1,"Light Far",1002,13,92,16,6.659316522,16,1,72,93,-17,7
"195",108,"SU23_1002",1,"Light Far",1002,14,96,12,5.748043842,-12,1,104,93,15,7
"196",226,"SU23_1002",1,"Light Far",1002,15,224,2,1.327243278,-2,1,222,226,0,0
"197",241,"SU23_1002",1,"Light Far",1002,16,224,17,8.050050219,-17,1,237,226,15,7
"198",185,"SU23_1002",1,"Light Far",1002,17,153,32,17.97712622,-32,2,183,158,27,15
"199",108,"SU23_1002",1,"Light Far",1002,18,93,15,7.08976499,-15,2,106,93,15,7
"200",216,"SU23_1002",1,"Light Far",1002,19,224,8,5.349480563,8,2,214,226,-10,7
"201",72,"SU23_1002",1,"Light Far",1002,20,56,16,5.802327819,-16,1,68,52,20,7
"202",93,"SU23_1002",1,"Light Far",1002,21,86,7,3.033557981,-7,1,89,93,0,0
"203",72,"SU23_1002",1,"Light Far",1002,22,50,22,7.790464502,-22,2,70,52,20,7
"204",146,"SU23_1002",1,"Light Far",1002,23,115,31,18.56400153,-31,2,144,158,-12,7
"205",170,"SU23_1002",1,"Light Far",1002,24,140,30,17.56620352,-30,1,166,158,12,7
"206",52,"SU23_1002",1,"Light Far",1002,25,43,9,2.865454863,-9,2,50,52,0,0
"207",133,"SU23_1002",1,"Light Far",1002,26,119,14,8.324725028,-14,1,129,158,-25,15
"208",93,"SU23_1002",1,"Light Far",1002,27,74,19,7.876603942,-19,2,91,93,0,0
"209",251,"SU23_1002",1,"Light Far",1002,28,248,3,3.647131057,-3,2,249,226,25,15
"210",226,"SU23_1002",1,"Light Far",1002,29,227,1,0.657885287,1,2,224,226,0,0
"211",76,"SU23_1002",1,"Light Far",1002,30,47,29,10.28104532,-29,2,74,93,-17,7
"212",123,"SU23_1002",1,"Light Far",1002,31,102,21,11.07296553,-21,2,121,93,30,15
"213",241,"SU23_1002",1,"Light Far",1002,32,166,75,39.55082158,-75,2,239,226,15,7
"214",29,"SU23_1002",1,"Light Far",1002,33,7,22,11.22763424,-22,2,27,52,-23,7
"215",170,"SU23_1002",1,"Light Far",1002,34,182,12,6.727518605,12,2,168,158,12,7
"216",133,"SU23_1002",1,"Light Far",1002,35,156,23,14.1143061,23,2,131,158,-25,15
"217",216,"SU23_1002",1,"Light Far",1002,36,197,19,12.10794006,-19,3,216,226,-10,7
"218",29,"SU23_1002",1,"Light Far",1002,37,17,12,5.51836798,-12,3,29,52,-23,7
"219",76,"SU23_1002",1,"Light Far",1002,38,43,33,11.50105803,-33,3,76,93,-17,7
"220",10,"SU23_1002",1,"Light Far",1002,39,0,10,18.51464822,-10,3,10,52,-42,15
"221",203,"SU23_1002",1,"Light Far",1002,40,185,18,10.72625402,-18,3,203,226,-23,15
"222",216,"SU23_1002",1,"Light Far",1002,41,185,31,19.08634785,-31,4,218,226,-10,7
"223",93,"SU23_1002",1,"Light Far",1002,42,84,9,3.871221661,-9,3,93,93,0,0
"224",72,"SU23_1002",1,"Light Far",1002,43,48,24,8.428478394,-24,3,72,52,20,7
"225",133,"SU23_1002",1,"Light Far",1002,44,109,24,13.67152661,-24,3,133,158,-25,15
"226",72,"SU23_1002",1,"Light Far",1002,45,41,31,10.56261378,-31,4,74,52,20,7
"227",203,"SU23_1002",1,"Light Far",1002,46,180,23,13.53927602,-23,4,205,226,-23,15
"228",251,"SU23_1002",1,"Light Far",1002,47,251,0,0,0,3,251,226,25,15
"229",93,"SU23_1002",1,"Light Far",1002,48,70,23,9.396018895,-23,4,95,93,0,0
"230",170,"SU23_1002",1,"Light Far",1002,49,204,34,19.63753248,34,3,170,158,12,7
"231",146,"SU23_1002",1,"Light Far",1002,50,113,33,19.631134,-33,3,146,158,-12,7
"232",123,"SU23_1002",1,"Light Far",1002,51,117,6,3.409323206,-6,3,123,93,30,15
"233",10,"SU23_1002",1,"Light Far",1002,52,14,4,2.200538031,4,4,12,52,-42,15
"234",52,"SU23_1002",1,"Light Far",1002,53,39,13,4.075385484,-13,3,52,52,0,0
"235",158,"SU23_1002",1,"Light Far",1002,54,167,9,5.148667296,9,3,158,158,0,0
"236",185,"SU23_1002",1,"Light Far",1002,55,181,4,2.274949773,-4,3,185,158,27,15
"237",108,"SU23_1002",1,"Light Far",1002,56,66,42,17.74849245,-42,3,108,93,15,7
"238",241,"SU23_1002",1,"Light Far",1002,57,228,13,5.894470362,-13,3,241,226,15,7
"239",158,"SU23_1002",1,"Light Far",1002,58,120,38,22.76069544,-38,4,160,158,0,0
"240",185,"SU23_1002",1,"Light Far",1002,59,192,7,4.064431992,7,4,187,158,27,15
"241",29,"SU23_1002",1,"Light Far",1002,60,23,6,2.531635629,-6,4,31,52,-23,7
"242",226,"SU23_1002",1,"Light Far",1002,61,228,2,1.314625344,2,3,226,226,0,0
"243",108,"SU23_1002",1,"Light Far",1002,62,71,37,15.95039485,-37,4,110,93,15,7
"244",133,"SU23_1002",1,"Light Far",1002,63,85,48,24.22656488,-48,4,135,158,-25,15
"245",123,"SU23_1002",1,"Light Far",1002,64,79,44,20.74385145,-44,4,125,93,30,15
"246",52,"SU23_1002",1,"Light Far",1002,65,40,12,3.775540244,-12,4,54,52,0,0
"247",251,"SU23_1002",1,"Light Far",1002,66,244,7,7.656691675,-7,4,253,226,25,15
"248",226,"SU23_1002",1,"Light Far",1002,67,228,2,1.314625344,2,4,228,226,0,0
"249",146,"SU23_1002",1,"Light Far",1002,68,109,37,21.70339852,-37,4,148,158,-12,7
"250",170,"SU23_1002",1,"Light Far",1002,69,84,86,45.69956407,-86,4,172,158,12,7
"251",241,"SU23_1002",1,"Light Far",1002,70,228,13,5.894470362,-13,4,243,226,15,7
"252",76,"SU23_1002",1,"Light Far",1002,71,50,26,9.332288024,-26,4,78,93,-17,7
"253",185,"SU23_1002",1,"Light Far",1002,72,182,3,1.709035946,-3,5,189,158,27,15
"254",93,"SU23_1002",1,"Light Far",1002,73,75,18,7.489454912,-18,5,97,93,0,0
"255",108,"SU23_1002",1,"Light Far",1002,74,108,0,0,0,5,112,93,15,7
"256",158,"SU23_1002",1,"Light Far",1002,75,149,9,5.398424335,-9,5,162,158,0,0
"257",241,"SU23_1002",1,"Light Far",1002,76,224,17,8.050050219,-17,5,245,226,15,7
"258",10,"SU23_1002",1,"Light Far",1002,77,12,2,1.105685771,2,5,14,52,-42,15
"259",93,"SU23_1002",1,"Light Far",1002,78,68,25,10.13835676,-25,6,99,93,0,0
"260",52,"SU23_1002",1,"Light Far",1002,79,46,6,1.934654911,-6,5,56,52,0,0
"261",133,"SU23_1002",1,"Light Far",1002,80,119,14,8.324725028,-14,5,137,158,-25,15
"262",146,"SU23_1002",1,"Light Far",1002,81,119,27,16.37054206,-27,5,150,158,-12,7
"263",72,"SU23_1002",1,"Light Far",1002,82,40,32,10.85525584,-32,5,76,52,20,7
"264",76,"SU23_1002",1,"Light Far",1002,83,39,37,12.67079591,-37,5,80,93,-17,7
"265",29,"SU23_1002",1,"Light Far",1002,84,16,13,6.042933088,-13,5,33,52,-23,7
"266",226,"SU23_1002",1,"Light Far",1002,85,231,5,3.253902756,5,5,230,226,0,0
"267",203,"SU23_1002",1,"Light Far",1002,86,208,5,3.175832046,5,5,207,226,-23,15
"268",185,"SU23_1002",1,"Light Far",1002,87,191,6,3.475117791,6,6,191,158,27,15
"269",52,"SU23_1002",1,"Light Far",1002,88,36,16,4.970063841,-16,6,58,52,0,0
"270",170,"SU23_1002",1,"Light Far",1002,89,171,1,0.560106901,1,5,174,158,12,7
"271",10,"SU23_1003",2,"Dark Far",1003,0,51,41,20.3181949847098,41,1,6,52,-42,15
"272",203,"SU23_1003",2,"Dark Far",1003,1,216,13,4.07538548350744,13,1,199,226,-23,15
"273",158,"SU23_1003",2,"Dark Far",1003,2,159,1,0.457553587946939,1,1,154,158,0,0
"274",29,"SU23_1003",2,"Dark Far",1003,3,47,18,11.9325121142908,18,1,25,52,-23,7
"275",10,"SU23_1003",2,"Dark Far",1003,4,24,14,7.685935569384,14,2,8,52,-42,15
"276",123,"SU23_1003",2,"Dark Far",1003,5,144,21,12.0318250675672,21,1,119,93,30,15
"277",203,"SU23_1003",2,"Dark Far",1003,6,213,10,3.1707851043467,10,2,201,226,-23,15
"278",158,"SU23_1003",2,"Dark Far",1003,7,170,12,5.25681506203045,12,2,156,158,0,0
"279",52,"SU23_1003",2,"Dark Far",1003,8,50,2,1.26074735960135,-2,1,48,52,0,0
"280",185,"SU23_1003",2,"Dark Far",1003,9,204,19,6.70897673184214,19,1,181,158,27,15
"281",146,"SU23_1003",2,"Dark Far",1003,10,168,22,10.1710277551909,22,1,142,158,-12,7
"282",251,"SU23_1003",2,"Dark Far",1003,11,254,3,8.09094417490582,3,1,247,226,25,15
"283",216,"SU23_1003",2,"Dark Far",1003,12,200,16,5.0717555719729,-16,1,212,226,-10,7
"284",76,"SU23_1003",2,"Dark Far",1003,13,86,10,5.59719415378649,10,1,72,93,-17,7
"285",108,"SU23_1003",2,"Dark Far",1003,14,94,14,8.35225821049259,-14,1,104,93,15,7
"286",226,"SU23_1003",2,"Dark Far",1003,15,228,2,0.782991355359103,2,1,222,226,0,0
"287",241,"SU23_1003",2,"Dark Far",1003,16,237,4,2.13834958282088,-4,1,237,226,15,7
"288",185,"SU23_1003",2,"Dark Far",1003,17,201,16,5.7179950115649,16,2,183,158,27,15
"289",108,"SU23_1003",2,"Dark Far",1003,18,87,21,12.254038287427,-21,2,106,93,15,7
"290",216,"SU23_1003",2,"Dark Far",1003,19,225,9,2.88393650979147,9,2,214,226,-10,7
"291",72,"SU23_1003",2,"Dark Far",1003,20,60,12,6.9836165358182,-12,1,68,52,20,7
"292",93,"SU23_1003",2,"Dark Far",1003,21,87,6,3.40099350156045,-6,1,89,93,0,0
"293",72,"SU23_1003",2,"Dark Far",1003,22,58,14,8.18303108687517,-14,2,70,52,20,7
"294",146,"SU23_1003",2,"Dark Far",1003,23,180,34,14.9484921534878,34,2,144,158,-12,7
"295",170,"SU23_1003",2,"Dark Far",1003,24,190,20,7.82095636164549,20,1,166,158,12,7
"296",52,"SU23_1003",2,"Dark Far",1003,25,44,8,5.12170021262037,-8,2,50,52,0,0
"297",133,"SU23_1003",2,"Dark Far",1003,26,185,52,23.461693860212,52,1,129,158,-25,15
"298",93,"SU23_1003",2,"Dark Far",1003,27,82,11,6.19302128021165,-11,2,91,93,0,0
"299",251,"SU23_1003",2,"Dark Far",1003,28,254,3,8.09094417490582,3,2,249,226,25,15
"300",226,"SU23_1003",2,"Dark Far",1003,29,248,22,11.2276342375418,22,2,224,226,0,0
"301",76,"SU23_1003",2,"Dark Far",1003,30,67,9,5.12772019509093,-9,2,74,93,-17,7
"302",123,"SU23_1003",2,"Dark Far",1003,31,84,39,22.8162699949162,-39,2,121,93,30,15
"303",241,"SU23_1003",2,"Dark Far",1003,32,230,11,5.51482155392037,-11,2,239,226,15,7
"304",29,"SU23_1003",2,"Dark Far",1003,33,15,14,6.53168527186293,-14,2,27,52,-23,7
"305",170,"SU23_1003",2,"Dark Far",1003,34,204,34,12.6128008298271,34,2,168,158,12,7
"306",133,"SU23_1003",2,"Dark Far",1003,35,202,69,28.961240026256,69,2,131,158,-25,15
"307",216,"SU23_1003",2,"Dark Far",1003,36,229,13,4.38961470762689,13,3,216,226,-10,7
"308",29,"SU23_1003",2,"Dark Far",1003,37,44,15,9.98481049001403,15,3,29,52,-23,7
"309",76,"SU23_1003",2,"Dark Far",1003,38,58,18,10.4311101815379,-18,3,76,93,-17,7
"310",10,"SU23_1003",2,"Dark Far",1003,39,1,9,10.941393654034,-9,3,10,52,-42,15
"311",203,"SU23_1003",2,"Dark Far",1003,40,216,13,4.07538548350744,13,3,203,226,-23,15
"312",216,"SU23_1003",2,"Dark Far",1003,41,228,12,3.99362047821325,12,4,218,226,-10,7
"313",93,"SU23_1003",2,"Dark Far",1003,42,85,8,4.52073698451452,-8,3,93,93,0,0
"314",72,"SU23_1003",2,"Dark Far",1003,43,72,0,0,0,3,72,52,20,7
"315",133,"SU23_1003",2,"Dark Far",1003,44,108,25,15.2830763482514,-25,3,133,158,-25,15
"316",72,"SU23_1003",2,"Dark Far",1003,45,67,5,2.86821186961669,-5,4,74,52,20,7
"317",203,"SU23_1003",2,"Dark Far",1003,46,220,17,5.26855326060142,17,4,205,226,-23,15
"318",251,"SU23_1003",2,"Dark Far",1003,47,254,3,8.09094417490582,3,3,251,226,25,15
"319",93,"SU23_1003",2,"Dark Far",1003,48,88,5,2.8390017621507,-5,4,95,93,0,0
"320",170,"SU23_1003",2,"Dark Far",1003,49,193,23,8.89663385339636,23,3,170,158,12,7
"321",146,"SU23_1003",2,"Dark Far",1003,50,183,37,16.0704022251562,37,3,146,158,-12,7
"322",123,"SU23_1003",2,"Dark Far",1003,51,95,28,16.9712172519489,-28,3,123,93,30,15
"323",10,"SU23_1003",2,"Dark Far",1003,52,1,9,10.941393654034,-9,4,12,52,-42,15
"324",52,"SU23_1003",2,"Dark Far",1003,53,39,13,8.42320226703444,-13,3,52,52,0,0
"325",158,"SU23_1003",2,"Dark Far",1003,54,194,36,14.4035673658826,36,3,158,158,0,0
"326",185,"SU23_1003",2,"Dark Far",1003,55,212,27,9.21535836814173,27,3,185,158,27,15
"327",108,"SU23_1003",2,"Dark Far",1003,56,116,8,5.01299291929631,8,3,108,93,15,7
"328",241,"SU23_1003",2,"Dark Far",1003,57,245,4,2.20053803069266,4,3,241,226,15,7
"329",158,"SU23_1003",2,"Dark Far",1003,58,195,37,14.7474337940633,37,4,160,158,0,0
"330",185,"SU23_1003",2,"Dark Far",1003,59,181,4,1.53595650251514,-4,4,187,158,27,15
"331",29,"SU23_1003",2,"Dark Far",1003,60,15,14,6.53168527186293,-14,4,31,52,-23,7
"332",226,"SU23_1003",2,"Dark Far",1003,61,229,3,1.19753053164216,3,3,226,226,0,0
"333",108,"SU23_1003",2,"Dark Far",1003,62,82,26,14.9691633252207,-26,4,110,93,15,7
"334",133,"SU23_1003",2,"Dark Far",1003,63,97,36,21.6535838282585,-36,4,135,158,-25,15
"335",123,"SU23_1003",2,"Dark Far",1003,64,74,49,27.8907617136139,-49,4,125,93,30,15
"336",52,"SU23_1003",2,"Dark Far",1003,65,43,9,5.77775888066201,-9,4,54,52,0,0
"337",251,"SU23_1003",2,"Dark Far",1003,66,254,3,8.09094417490582,3,4,253,226,25,15
"338",226,"SU23_1003",2,"Dark Far",1003,67,229,3,1.19753053164216,3,4,228,226,0,0
"339",146,"SU23_1003",2,"Dark Far",1003,68,175,29,13.0156807533692,29,4,148,158,-12,7
"340",170,"SU23_1003",2,"Dark Far",1003,69,192,22,8.54095394778469,22,4,172,158,12,7
"341",241,"SU23_1003",2,"Dark Far",1003,70,233,8,4.14670980486327,-8,4,243,226,15,7
"342",76,"SU23_1003",2,"Dark Far",1003,71,62,14,8.04762739113781,-14,4,78,93,-17,7
"343",185,"SU23_1003",2,"Dark Far",1003,72,207,22,7.67225643891068,22,5,189,158,27,15
"344",93,"SU23_1003",2,"Dark Far",1003,73,89,4,2.27532229445329,-4,5,97,93,0,0
"345",108,"SU23_1003",2,"Dark Far",1003,74,125,17,10.5743890867451,17,5,112,93,15,7
"346",158,"SU23_1003",2,"Dark Far",1003,75,215,57,20.9613196504351,57,5,162,158,0,0
"347",241,"SU23_1003",2,"Dark Far",1003,76,229,12,5.938181335143,-12,5,245,226,15,7
"348",10,"SU23_1003",2,"Dark Far",1003,77,2,8,9.46354958030653,-8,5,14,52,-42,15
"349",93,"SU23_1003",2,"Dark Far",1003,78,84,9,5.07891875243517,-9,6,99,93,0,0
"350",52,"SU23_1003",2,"Dark Far",1003,79,62,10,6.08938435763203,10,5,56,52,0,0
"351",133,"SU23_1003",2,"Dark Far",1003,80,152,19,10.0237446749474,19,5,137,158,-25,15
"352",146,"SU23_1003",2,"Dark Far",1003,81,163,17,8.03297418790932,17,5,150,158,-12,7
"353",72,"SU23_1003",2,"Dark Far",1003,82,74,2,1.13334446841023,2,5,76,52,20,7
"354",76,"SU23_1003",2,"Dark Far",1003,83,66,10,5.70790772064931,-10,5,80,93,-17,7
"355",29,"SU23_1003",2,"Dark Far",1003,84,6,23,12.5164961187259,-23,5,33,52,-23,7
"356",226,"SU23_1003",2,"Dark Far",1003,85,234,8,3.48843607888273,8,5,230,226,0,0
"357",203,"SU23_1003",2,"Dark Far",1003,86,226,23,7.12521815314653,23,5,207,226,-23,15
"358",185,"SU23_1003",2,"Dark Far",1003,87,220,35,11.5365509854133,35,6,191,158,27,15
"359",52,"SU23_1003",2,"Dark Far",1003,88,23,29,19.0277605813109,-29,6,58,52,0,0
"360",170,"SU23_1003",2,"Dark Far",1003,89,207,37,13.560797465743,37,5,174,158,12,7
"361",10,"SU23_1004",1,"Light Far",1004,0,4,6,7.96662021799956,-6,1,6,52,-42,15
"362",203,"SU23_1004",1,"Light Far",1004,1,194,9,5.49595255999824,-9,1,199,226,-23,15
"363",158,"SU23_1004",1,"Light Far",1004,2,167,9,5.14866729580578,9,1,154,158,0,0
"364",29,"SU23_1004",1,"Light Far",1004,3,7,22,11.2276342375418,-22,1,25,52,-23,7
"365",10,"SU23_1004",1,"Light Far",1004,4,3,7,10.2216107697739,-7,2,8,52,-42,15
"366",123,"SU23_1004",1,"Light Far",1004,5,187,64,35.659445701676,64,1,119,93,30,15
"367",203,"SU23_1004",1,"Light Far",1004,6,212,9,5.77775888066201,9,2,201,226,-23,15
"368",158,"SU23_1004",1,"Light Far",1004,7,167,9,5.14866729580578,9,2,156,158,0,0
"369",52,"SU23_1004",1,"Light Far",1004,8,43,9,2.86545486299818,-9,1,48,52,0,0
"370",185,"SU23_1004",1,"Light Far",1004,9,201,16,9.48596417131976,16,1,181,158,27,15
"371",146,"SU23_1004",1,"Light Far",1004,10,172,26,15.0288825241527,26,1,142,158,-12,7
"372",251,"SU23_1004",1,"Light Far",1004,11,252,1,1.36602613783589,1,1,247,226,25,15
"373",216,"SU23_1004",1,"Light Far",1004,12,241,25,12.8281701992511,25,1,212,226,-10,7
"374",76,"SU23_1004",1,"Light Far",1004,13,80,4,1.59944999535108,4,1,72,93,-17,7
"375",108,"SU23_1004",1,"Light Far",1004,14,151,43,25.1548792073692,43,1,104,93,15,7
"376",226,"SU23_1004",1,"Light Far",1004,15,230,4,2.61233879273184,4,1,222,226,0,0
"377",241,"SU23_1004",1,"Light Far",1004,16,230,11,4.97653653076484,-11,1,237,226,15,7
"378",185,"SU23_1004",1,"Light Far",1004,17,185,0,0,0,2,183,158,27,15
"379",108,"SU23_1004",1,"Light Far",1004,18,82,26,11.7228498744165,-26,2,106,93,15,7
"380",216,"SU23_1004",1,"Light Far",1004,19,205,11,7.16412356071167,-11,2,214,226,-10,7
"381",72,"SU23_1004",1,"Light Far",1004,20,77,5,1.95255826032305,5,1,68,52,20,7
"382",93,"SU23_1004",1,"Light Far",1004,21,76,17,7.09937097134519,-17,1,89,93,0,0
"383",72,"SU23_1004",1,"Light Far",1004,22,43,29,9.96844687828543,-29,2,70,52,20,7
"384",146,"SU23_1004",1,"Light Far",1004,23,199,53,29.6657766450498,53,2,144,158,-12,7
"385",170,"SU23_1004",1,"Light Far",1004,24,219,49,29.1870052538865,49,1,166,158,12,7
"386",52,"SU23_1004",1,"Light Far",1004,25,38,14,4.37410625758437,-14,2,50,52,0,0
"387",133,"SU23_1004",1,"Light Far",1004,26,149,16,9.96882242163673,16,1,129,158,-25,15
"388",93,"SU23_1004",1,"Light Far",1004,27,71,22,9.0205282233482,-22,2,91,93,0,0
"389",251,"SU23_1004",1,"Light Far",1004,28,252,1,1.36602613783589,1,2,249,226,25,15
"390",226,"SU23_1004",1,"Light Far",1004,29,229,3,1.96531583104478,3,2,224,226,0,0
"391",76,"SU23_1004",1,"Light Far",1004,30,70,6,2.31931843030759,-6,2,74,93,-17,7
"392",123,"SU23_1004",1,"Light Far",1004,31,172,49,28.3577444548209,49,2,121,93,30,15
"393",241,"SU23_1004",1,"Light Far",1004,32,233,8,3.98860823901287,-8,2,239,226,15,7
"394",29,"SU23_1004",1,"Light Far",1004,33,4,25,16.3052701826006,-25,2,27,52,-23,7
"395",170,"SU23_1004",1,"Light Far",1004,34,150,20,11.5430924827464,-20,2,168,158,12,7
"396",133,"SU23_1004",1,"Light Far",1004,35,115,18,10.5329875807259,-18,2,131,158,-25,15
"397",216,"SU23_1004",1,"Light Far",1004,36,204,12,7.79697613058468,-12,3,216,226,-10,7
"398",29,"SU23_1004",1,"Light Far",1004,37,6,23,12.7991119253414,-23,3,29,52,-23,7
"399",76,"SU23_1004",1,"Light Far",1004,38,64,12,4.54226358898341,-12,3,76,93,-17,7
"400",10,"SU23_1004",1,"Light Far",1004,39,2,8,12.7027215674503,-8,3,10,52,-42,15
"401",203,"SU23_1004",1,"Light Far",1004,40,215,12,7.75639578098561,12,3,203,226,-23,15
"402",216,"SU23_1004",1,"Light Far",1004,41,224,8,5.34948056289215,8,4,218,226,-10,7
"403",93,"SU23_1004",1,"Light Far",1004,42,62,31,12.2953977480231,-31,3,93,93,0,0
"404",72,"SU23_1004",1,"Light Far",1004,43,29,43,13.9636545552751,-43,3,72,52,20,7
"405",133,"SU23_1004",1,"Light Far",1004,44,192,59,32.93244630049,59,3,133,158,-25,15
"406",72,"SU23_1004",1,"Light Far",1004,45,87,15,6.05302171588402,15,4,74,52,20,7
"407",203,"SU23_1004",1,"Light Far",1004,46,220,17,11.0959921505279,17,4,205,226,-23,15
"408",251,"SU23_1004",1,"Light Far",1004,47,248,3,3.64713105702336,-3,3,251,226,25,15
"409",93,"SU23_1004",1,"Light Far",1004,48,66,27,10.869072181774,-27,4,95,93,0,0
"410",170,"SU23_1004",1,"Light Far",1004,49,210,40,23.3866336049804,40,3,170,158,12,7
"411",146,"SU23_1004",1,"Light Far",1004,50,164,18,10.6543758127759,18,3,146,158,-12,7
"412",123,"SU23_1004",1,"Light Far",1004,51,147,24,14.7095794221255,24,3,123,93,30,15
"413",10,"SU23_1004",1,"Light Far",1004,52,4,6,7.96662021799956,-6,4,12,52,-42,15
"414",52,"SU23_1004",1,"Light Far",1004,53,74,22,7.90731630112005,22,3,52,52,0,0
"415",158,"SU23_1004",1,"Light Far",1004,54,139,19,11.5845768682062,-19,3,158,158,0,0
"416",185,"SU23_1004",1,"Light Far",1004,55,211,26,15.8116822778681,26,3,185,158,27,15
"417",108,"SU23_1004",1,"Light Far",1004,56,136,28,16.036385064359,28,3,108,93,15,7
"418",241,"SU23_1004",1,"Light Far",1004,57,233,8,3.98860823901287,-8,3,241,226,15,7
"419",158,"SU23_1004",1,"Light Far",1004,58,141,17,10.3464885153762,-17,4,160,158,0,0
"420",185,"SU23_1004",1,"Light Far",1004,59,166,19,10.6522442335755,-19,4,187,158,27,15
"421",29,"SU23_1004",1,"Light Far",1004,60,7,22,11.2276342375418,-22,4,31,52,-23,7
"422",226,"SU23_1004",1,"Light Far",1004,61,252,26,15.5659928281734,26,3,226,226,0,0
"423",108,"SU23_1004",1,"Light Far",1004,62,180,72,39.660528589373,72,4,110,93,15,7
"424",133,"SU23_1004",1,"Light Far",1004,63,211,78,43.0195391948646,78,4,135,158,-25,15
"425",123,"SU23_1004",1,"Light Far",1004,64,155,32,19.4167639041164,32,4,125,93,30,15
"426",52,"SU23_1004",1,"Light Far",1004,65,43,9,2.86545486299818,-9,4,54,52,0,0
"427",251,"SU23_1004",1,"Light Far",1004,66,253,2,2.8187605440857,2,4,253,226,25,15
"428",226,"SU23_1004",1,"Light Far",1004,67,236,10,5.75967155032789,10,4,228,226,0,0
"429",146,"SU23_1004",1,"Light Far",1004,68,166,20,11.7627676554364,20,4,148,158,-12,7
"430",170,"SU23_1004",1,"Light Far",1004,69,206,36,20.8751955992474,36,4,172,158,12,7
"431",241,"SU23_1004",1,"Light Far",1004,70,231,10,4.58384082264774,-10,4,243,226,15,7
"432",76,"SU23_1004",1,"Light Far",1004,71,58,18,6.66549511243245,-18,4,78,93,-17,7
"433",185,"SU23_1004",1,"Light Far",1004,72,178,7,3.96485010221022,-7,5,189,158,27,15
"434",93,"SU23_1004",1,"Light Far",1004,73,76,17,7.09937097134519,-17,5,97,93,0,0
"435",108,"SU23_1004",1,"Light Far",1004,74,84,24,10.9121362759177,-24,5,112,93,15,7
"436",158,"SU23_1004",1,"Light Far",1004,75,144,14,8.48526048260986,-14,5,162,158,0,0
"437",241,"SU23_1004",1,"Light Far",1004,76,225,16,7.48610970675003,-16,5,245,226,15,7
"438",10,"SU23_1004",1,"Light Far",1004,77,5,5,5.89844534490897,-5,5,14,52,-42,15
"439",93,"SU23_1004",1,"Light Far",1004,78,63,30,11.9432332033281,-30,6,99,93,0,0
"440",52,"SU23_1004",1,"Light Far",1004,79,31,21,6.48664065814832,-21,5,56,52,0,0
"441",133,"SU23_1004",1,"Light Far",1004,80,145,12,7.50687739627481,12,5,137,158,-25,15
"442",146,"SU23_1004",1,"Light Far",1004,81,124,22,13.5216325603913,-22,5,150,158,-12,7
"443",72,"SU23_1004",1,"Light Far",1004,82,68,4,1.5152638468145,-4,5,76,52,20,7
"444",76,"SU23_1004",1,"Light Far",1004,83,74,2,0.783750814905729,-2,5,80,93,-17,7
"445",29,"SU23_1004",1,"Light Far",1004,84,2,27,20.3528753019231,-27,5,33,52,-23,7
"446",226,"SU23_1004",1,"Light Far",1004,85,227,1,0.657885287235583,1,5,230,226,0,0
"447",203,"SU23_1004",1,"Light Far",1004,86,194,9,5.49595255999824,-9,5,207,226,-23,15
"448",185,"SU23_1004",1,"Light Far",1004,87,165,20,11.2095665037097,-20,6,191,158,27,15
"449",52,"SU23_1004",1,"Light Far",1004,88,71,19,6.75959577780658,19,6,58,52,0,0
"450",170,"SU23_1004",1,"Light Far",1004,89,165,5,2.81446514132867,-5,5,174,158,12,7
"451",10,"SU23_1006",1,"Light Far",1006,0,142,132,48.56954868,132,1,6,52,-42,15
"452",203,"SU23_1006",1,"Light Far",1006,1,226,23,15.10630483,23,1,199,226,-23,15
"453",158,"SU23_1006",1,"Light Far",1006,2,166,8,4.586652558,8,1,154,158,0,0
"454",29,"SU23_1006",1,"Light Far",1006,3,141,112,44.92582592,112,1,25,52,-23,7
"455",10,"SU23_1006",1,"Light Far",1006,4,141,131,48.0900898,131,2,8,52,-42,15
"456",123,"SU23_1006",1,"Light Far",1006,5,128,5,2.971439067,5,1,119,93,30,15
"457",203,"SU23_1006",1,"Light Far",1006,6,231,28,18.38517305,28,2,201,226,-23,15
"458",158,"SU23_1006",1,"Light Far",1006,7,162,4,2.315605265,4,2,156,158,0,0
"459",52,"SU23_1006",1,"Light Far",1006,8,51,1,0.329459377,-1,1,48,52,0,0
"460",185,"SU23_1006",1,"Light Far",1006,9,107,78,42.39179978,-78,1,181,158,27,15
"461",146,"SU23_1006",1,"Light Far",1006,10,140,6,3.764076126,-6,1,142,158,-12,7
"462",251,"SU23_1006",1,"Light Far",1006,11,187,64,28.298609,-64,1,247,226,25,15
"463",216,"SU23_1006",1,"Light Far",1006,12,225,9,6.013082717,9,1,212,226,-10,7
"464",76,"SU23_1006",1,"Light Far",1006,13,61,15,5.616612616,-15,1,72,93,-17,7
"465",108,"SU23_1006",1,"Light Far",1006,14,94,14,6.646466573,-14,1,104,93,15,7
"466",226,"SU23_1006",1,"Light Far",1006,15,232,6,3.889106318,6,1,222,226,0,0
"467",241,"SU23_1006",1,"Light Far",1006,16,232,9,4.250594445,-9,1,237,226,15,7
"468",185,"SU23_1006",1,"Light Far",1006,17,198,13,7.651516111,13,2,183,158,27,15
"469",108,"SU23_1006",1,"Light Far",1006,18,89,19,8.824892026,-19,2,106,93,15,7
"470",216,"SU23_1006",1,"Light Far",1006,19,186,30,18.52297179,-30,2,214,226,-10,7
"471",72,"SU23_1006",1,"Light Far",1006,20,45,27,9.361876331,-27,1,68,52,20,7
"472",93,"SU23_1006",1,"Light Far",1006,21,45,48,17.81113645,-48,1,89,93,0,0
"473",72,"SU23_1006",1,"Light Far",1006,22,47,25,8.742852246,-25,2,70,52,20,7
"474",146,"SU23_1006",1,"Light Far",1006,23,113,33,19.631134,-33,2,144,158,-12,7
"475",170,"SU23_1006",1,"Light Far",1006,24,177,7,3.917656504,7,1,166,158,12,7
"476",52,"SU23_1006",1,"Light Far",1006,25,82,30,11.06788267,30,2,50,52,0,0
"477",133,"SU23_1006",1,"Light Far",1006,26,109,24,13.67152661,-24,1,129,158,-25,15
"478",93,"SU23_1006",1,"Light Far",1006,27,43,50,18.39840633,-50,2,91,93,0,0
"479",251,"SU23_1006",1,"Light Far",1006,28,95,156,57.41428282,-156,2,249,226,25,15
"480",226,"SU23_1006",1,"Light Far",1006,29,229,3,1.965315831,3,2,224,226,0,0
"481",76,"SU23_1006",1,"Light Far",1006,30,81,5,2.00599951,5,2,74,93,-17,7
"482",123,"SU23_1006",1,"Light Far",1006,31,81,42,19.98418147,-42,2,121,93,30,15
"483",241,"SU23_1006",1,"Light Far",1006,32,226,15,6.934039833,-15,2,239,226,15,7
"484",29,"SU23_1006",1,"Light Far",1006,33,229,200,90.51663404,200,2,27,52,-23,7
"485",170,"SU23_1006",1,"Light Far",1006,34,156,14,7.989484582,-14,2,168,158,12,7
"486",133,"SU23_1006",1,"Light Far",1006,35,156,23,14.1143061,23,2,131,158,-25,15
"487",216,"SU23_1006",1,"Light Far",1006,36,230,14,9.295428546,14,3,216,226,-10,7
"488",29,"SU23_1006",1,"Light Far",1006,37,227,198,89.86314991,198,3,29,52,-23,7
"489",76,"SU23_1006",1,"Light Far",1006,38,79,3,1.195582886,3,3,76,93,-17,7
"490",10,"SU23_1006",1,"Light Far",1006,39,79,69,22.71369984,69,3,10,52,-42,15
"491",203,"SU23_1006",1,"Light Far",1006,40,79,124,61.6063376,-124,3,203,226,-23,15
"492",216,"SU23_1006",1,"Light Far",1006,41,79,137,67.17621712,-137,4,218,226,-10,7
"493",93,"SU23_1006",1,"Light Far",1006,42,48,45,16.90517194,-45,3,93,93,0,0
"494",72,"SU23_1006",1,"Light Far",1006,43,44,28,9.666758616,-28,3,72,52,20,7
"495",133,"SU23_1006",1,"Light Far",1006,44,107,26,14.66965017,-26,3,133,158,-25,15
"496",72,"SU23_1006",1,"Light Far",1006,45,47,25,8.742852246,-25,4,74,52,20,7
"497",203,"SU23_1006",1,"Light Far",1006,46,169,34,19.56567862,-34,4,205,226,-23,15
"498",251,"SU23_1006",1,"Light Far",1006,47,254,3,4.366557639,3,3,251,226,25,15
"499",93,"SU23_1006",1,"Light Far",1006,48,77,16,6.706340415,-16,4,95,93,0,0
"500",170,"SU23_1006",1,"Light Far",1006,49,153,17,9.756518585,-17,3,170,158,12,7
"501",146,"SU23_1006",1,"Light Far",1006,50,121,25,15.24476505,-25,3,146,158,-12,7
"502",123,"SU23_1006",1,"Light Far",1006,51,111,12,6.623019588,-12,3,123,93,30,15
"503",10,"SU23_1006",1,"Light Far",1006,52,1,9,15.4530978,-9,4,12,52,-42,15
"504",52,"SU23_1006",1,"Light Far",1006,53,46,6,1.934654911,-6,3,52,52,0,0
"505",158,"SU23_1006",1,"Light Far",1006,54,162,4,2.315605265,4,3,158,158,0,0
"506",185,"SU23_1006",1,"Light Far",1006,55,188,3,1.726781723,3,3,185,158,27,15
"507",108,"SU23_1006",1,"Light Far",1006,56,85,23,10.50168472,-23,3,108,93,15,7
"508",241,"SU23_1006",1,"Light Far",1006,57,238,3,2.317556405,-3,3,241,226,15,7
"509",158,"SU23_1006",1,"Light Far",1006,58,152,6,3.571049649,-6,4,160,158,0,0
"510",185,"SU23_1006",1,"Light Far",1006,59,168,17,9.53918044,-17,4,187,158,27,15
"511",29,"SU23_1006",1,"Light Far",1006,60,13,16,7.635108059,-16,4,31,52,-23,7
"512",226,"SU23_1006",1,"Light Far",1006,61,231,5,3.253902756,5,3,226,226,0,0
"513",108,"SU23_1006",1,"Light Far",1006,62,93,15,7.08976499,-15,4,110,93,15,7
"514",133,"SU23_1006",1,"Light Far",1006,63,115,18,10.53298758,-18,4,135,158,-25,15
"515",123,"SU23_1006",1,"Light Far",1006,64,115,8,4.502848348,-8,4,125,93,30,15
"516",52,"SU23_1006",1,"Light Far",1006,65,52,0,0,0,4,54,52,0,0
"517",251,"SU23_1006",1,"Light Far",1006,66,253,2,2.818760544,2,4,253,226,25,15
"518",226,"SU23_1006",1,"Light Far",1006,67,221,5,3.334796931,-5,4,228,226,0,0
"519",146,"SU23_1006",1,"Light Far",1006,68,126,20,12.35087427,-20,4,148,158,-12,7
"520",170,"SU23_1006",1,"Light Far",1006,69,145,25,14.5515941,-25,4,172,158,12,7
"521",241,"SU23_1006",1,"Light Far",1006,70,230,11,4.976536531,-11,4,243,226,15,7
"522",76,"SU23_1006",1,"Light Far",1006,71,52,24,8.683900807,-24,4,78,93,-17,7
"523",185,"SU23_1006",1,"Light Far",1006,72,165,20,11.2095665,-20,5,189,158,27,15
"524",93,"SU23_1006",1,"Light Far",1006,73,41,52,18.97213986,-52,5,97,93,0,0
"525",108,"SU23_1006",1,"Light Far",1006,74,41,67,25.58235611,-67,5,112,93,15,7
"526",158,"SU23_1006",1,"Light Far",1006,75,162,4,2.315605265,4,5,162,158,0,0
"527",241,"SU23_1006",1,"Light Far",1006,76,232,9,4.250594445,-9,5,245,226,15,7
"528",10,"SU23_1006",1,"Light Far",1006,77,0,10,18.51464822,-10,5,14,52,-42,15
"529",93,"SU23_1006",1,"Light Far",1006,78,56,37,14.34564908,-37,6,99,93,0,0
"530",52,"SU23_1006",1,"Light Far",1006,79,39,13,4.075385484,-13,5,56,52,0,0
"531",133,"SU23_1006",1,"Light Far",1006,80,144,11,6.88416671,11,5,137,158,-25,15
"532",146,"SU23_1006",1,"Light Far",1006,81,169,23,13.40508273,23,5,150,158,-12,7
"533",72,"SU23_1006",1,"Light Far",1006,82,49,23,8.111026665,-23,5,76,52,20,7
"534",76,"SU23_1006",1,"Light Far",1006,83,49,27,9.651683734,-27,5,80,93,-17,7
"535",29,"SU23_1006",1,"Light Far",1006,84,20,9,3.98312514,-9,5,33,52,-23,7
"536",226,"SU23_1006",1,"Light Far",1006,85,223,3,1.996517154,-3,5,230,226,0,0
"537",203,"SU23_1006",1,"Light Far",1006,86,208,5,3.175832046,5,5,207,226,-23,15
"538",185,"SU23_1006",1,"Light Far",1006,87,200,15,8.872004141,15,6,191,158,27,15
"539",52,"SU23_1006",1,"Light Far",1006,88,31,21,6.486640658,-21,6,58,52,0,0
"540",170,"SU23_1006",1,"Light Far",1006,89,182,12,6.727518605,12,5,174,158,12,7
"541",10,"SU23_1007",2,"Dark Far",1007,0,72,62,30.41834321,62,1,6,52,-42,15
"542",203,"SU23_1007",2,"Dark Far",1007,1,221,18,5.568550555,18,1,199,226,-23,15
"543",158,"SU23_1007",2,"Dark Far",1007,2,158,0,0,0,1,154,158,0,0
"544",29,"SU23_1007",2,"Dark Far",1007,3,54,25,16.34985066,25,1,25,52,-23,7
"545",10,"SU23_1007",2,"Dark Far",1007,4,38,28,13.52636698,28,2,8,52,-42,15
"546",123,"SU23_1007",2,"Dark Far",1007,5,69,54,30.41305389,-54,1,119,93,30,15
"547",203,"SU23_1007",2,"Dark Far",1007,6,225,22,6.802469684,22,2,201,226,-23,15
"548",158,"SU23_1007",2,"Dark Far",1007,7,158,0,0,0,2,156,158,0,0
"549",52,"SU23_1007",2,"Dark Far",1007,8,49,3,1.894445157,-3,1,48,52,0,0
"550",185,"SU23_1007",2,"Dark Far",1007,9,225,40,12.94597397,40,1,181,158,27,15
"551",146,"SU23_1007",2,"Dark Far",1007,10,172,26,11.8169519,26,1,142,158,-12,7
"552",251,"SU23_1007",2,"Dark Far",1007,11,223,28,17.14609503,-28,1,247,226,25,15
"553",216,"SU23_1007",2,"Dark Far",1007,12,223,7,2.200130023,7,1,212,226,-10,7
"554",76,"SU23_1007",2,"Dark Far",1007,13,76,0,0,0,1,72,93,-17,7
"555",108,"SU23_1007",2,"Dark Far",1007,14,76,32,18.19330864,-32,1,104,93,15,7
"556",226,"SU23_1007",2,"Dark Far",1007,15,228,2,0.782991355,2,1,222,226,0,0
"557",241,"SU23_1007",2,"Dark Far",1007,16,228,13,6.343884524,-13,1,237,226,15,7
"558",185,"SU23_1007",2,"Dark Far",1007,17,147,38,16.31603786,-38,2,183,158,27,15
"559",108,"SU23_1007",2,"Dark Far",1007,18,75,33,18.72997772,-33,2,106,93,15,7
"560",216,"SU23_1007",2,"Dark Far",1007,19,224,8,2.537234357,8,2,214,226,-10,7
"561",72,"SU23_1007",2,"Dark Far",1007,20,44,28,16.93626956,-28,1,68,52,20,7
"562",93,"SU23_1007",2,"Dark Far",1007,21,71,22,12.32353806,-22,1,89,93,0,0
"563",72,"SU23_1007",2,"Dark Far",1007,22,40,32,19.54504999,-32,2,70,52,20,7
"564",146,"SU23_1007",2,"Dark Far",1007,23,153,7,3.461647408,7,2,144,158,-12,7
"565",170,"SU23_1007",2,"Dark Far",1007,24,155,15,6.644187451,-15,1,166,158,12,7
"566",52,"SU23_1007",2,"Dark Far",1007,25,41,11,7.095879029,-11,2,50,52,0,0
"567",133,"SU23_1007",2,"Dark Far",1007,26,72,61,34.2368407,-61,1,129,158,-25,15
"568",93,"SU23_1007",2,"Dark Far",1007,27,72,21,11.76280331,-21,2,91,93,0,0
"569",251,"SU23_1007",2,"Dark Far",1007,28,233,18,13.74107555,-18,2,249,226,25,15
"570",226,"SU23_1007",2,"Dark Far",1007,29,233,7,3.003741501,7,2,224,226,0,0
"571",76,"SU23_1007",2,"Dark Far",1007,30,66,10,5.707907721,-10,2,74,93,-17,7
"572",123,"SU23_1007",2,"Dark Far",1007,31,66,57,31.9342973,-57,2,121,93,30,15
"573",241,"SU23_1007",2,"Dark Far",1007,32,237,4,2.138349583,-4,2,239,226,15,7
"574",29,"SU23_1007",2,"Dark Far",1007,33,37,8,5.342158601,8,2,27,52,-23,7
"575",170,"SU23_1007",2,"Dark Far",1007,34,153,17,7.586550177,-17,2,168,158,12,7
"576",133,"SU23_1007",2,"Dark Far",1007,35,153,20,10.49786376,20,2,131,158,-25,15
"577",216,"SU23_1007",2,"Dark Far",1007,36,232,16,5.659907188,16,3,216,226,-10,7
"578",29,"SU23_1007",2,"Dark Far",1007,37,41,12,8.007508258,12,3,29,52,-23,7
"579",76,"SU23_1007",2,"Dark Far",1007,38,42,34,20.44743651,-34,3,76,93,-17,7
"580",10,"SU23_1007",2,"Dark Far",1007,39,42,32,15.628657,32,3,10,52,-42,15
"581",203,"SU23_1007",2,"Dark Far",1007,40,228,25,7.796006545,25,3,203,226,-23,15
"582",216,"SU23_1007",2,"Dark Far",1007,41,228,12,3.993620478,12,4,218,226,-10,7
"583",93,"SU23_1007",2,"Dark Far",1007,42,74,19,10.64530909,-19,3,93,93,0,0
"584",72,"SU23_1007",2,"Dark Far",1007,43,42,30,18.23552907,-30,3,72,52,20,7
"585",133,"SU23_1007",2,"Dark Far",1007,44,59,74,40.55356868,-74,3,133,158,-25,15
"586",72,"SU23_1007",2,"Dark Far",1007,45,33,39,24.186844,-39,4,74,52,20,7
"587",203,"SU23_1007",2,"Dark Far",1007,46,225,22,6.802469684,22,4,205,226,-23,15
"588",251,"SU23_1007",2,"Dark Far",1007,47,223,28,17.14609503,-28,3,251,226,25,15
"589",93,"SU23_1007",2,"Dark Far",1007,48,66,27,15.14973794,-27,4,95,93,0,0
"590",170,"SU23_1007",2,"Dark Far",1007,49,158,12,5.256815062,-12,3,170,158,12,7
"591",146,"SU23_1007",2,"Dark Far",1007,50,157,11,5.340100928,11,3,146,158,-12,7
"592",123,"SU23_1007",2,"Dark Far",1007,51,75,48,27.3862345,-48,3,123,93,30,15
"593",10,"SU23_1007",2,"Dark Far",1007,52,44,34,16.6836417,34,4,12,52,-42,15
"594",52,"SU23_1007",2,"Dark Far",1007,53,44,8,5.121700213,-8,3,52,52,0,0
"595",158,"SU23_1007",2,"Dark Far",1007,54,148,10,4.790909543,-10,3,158,158,0,0
"596",185,"SU23_1007",2,"Dark Far",1007,55,230,45,14.42133239,45,3,185,158,27,15
"597",108,"SU23_1007",2,"Dark Far",1007,56,80,28,16.0464759,-28,3,108,93,15,7
"598",241,"SU23_1007",2,"Dark Far",1007,57,232,9,4.6178916,-9,3,241,226,15,7
"599",158,"SU23_1007",2,"Dark Far",1007,58,163,5,2.251260085,5,4,160,158,0,0
"600",185,"SU23_1007",2,"Dark Far",1007,59,161,24,9.836433433,-24,4,187,158,27,15
"601",29,"SU23_1007",2,"Dark Far",1007,60,54,25,16.34985066,25,4,31,52,-23,7
"602",226,"SU23_1007",2,"Dark Far",1007,61,234,8,3.488436079,8,3,226,226,0,0
"603",108,"SU23_1007",2,"Dark Far",1007,62,80,28,16.0464759,-28,4,110,93,15,7
"604",133,"SU23_1007",2,"Dark Far",1007,63,143,10,5.521305678,10,4,135,158,-25,15
"605",123,"SU23_1007",2,"Dark Far",1007,64,69,54,30.41305389,-54,4,125,93,30,15
"606",52,"SU23_1007",2,"Dark Far",1007,65,45,7,4.470615235,-7,4,54,52,0,0
"607",251,"SU23_1007",2,"Dark Far",1007,66,230,21,14.94225983,-21,4,253,226,25,15
"608",226,"SU23_1007",2,"Dark Far",1007,67,230,4,1.627490584,4,4,228,226,0,0
"609",146,"SU23_1007",2,"Dark Far",1007,68,150,4,2.006181203,4,4,148,158,-12,7
"610",170,"SU23_1007",2,"Dark Far",1007,69,150,20,9.027219387,-20,4,172,158,12,7
"611",241,"SU23_1007",2,"Dark Far",1007,70,228,13,6.343884524,-13,4,243,226,15,7
"612",76,"SU23_1007",2,"Dark Far",1007,71,46,30,17.87065485,-30,4,78,93,-17,7
"613",185,"SU23_1007",2,"Dark Far",1007,72,158,27,11.17478362,-27,5,189,158,27,15
"614",93,"SU23_1007",2,"Dark Far",1007,73,81,12,6.749403757,-12,5,97,93,0,0
"615",108,"SU23_1007",2,"Dark Far",1007,74,80,28,16.0464759,-28,5,112,93,15,7
"616",158,"SU23_1007",2,"Dark Far",1007,75,156,2,0.926418204,-2,5,162,158,0,0
"617",241,"SU23_1007",2,"Dark Far",1007,76,232,9,4.6178916,-9,5,245,226,15,7
"618",10,"SU23_1007",2,"Dark Far",1007,77,40,30,14.57380151,30,5,14,52,-42,15
"619",93,"SU23_1007",2,"Dark Far",1007,78,71,22,12.32353806,-22,6,99,93,0,0
"620",52,"SU23_1007",2,"Dark Far",1007,79,45,7,4.470615235,-7,5,56,52,0,0
"621",133,"SU23_1007",2,"Dark Far",1007,80,82,51,29.38747365,-51,5,137,158,-25,15
"622",146,"SU23_1007",2,"Dark Far",1007,81,150,4,2.006181203,4,5,150,158,-12,7
"623",72,"SU23_1007",2,"Dark Far",1007,82,75,3,1.698706294,3,5,76,52,20,7
"624",76,"SU23_1007",2,"Dark Far",1007,83,75,1,0.563700962,-1,5,80,93,-17,7
"625",29,"SU23_1007",2,"Dark Far",1007,84,37,8,5.342158601,8,5,33,52,-23,7
"626",226,"SU23_1007",2,"Dark Far",1007,85,233,7,3.003741501,7,5,230,226,0,0
"627",203,"SU23_1007",2,"Dark Far",1007,86,227,24,7.456030555,24,5,207,226,-23,15
"628",185,"SU23_1007",2,"Dark Far",1007,87,162,23,9.396018895,-23,6,191,158,27,15
"629",52,"SU23_1007",2,"Dark Far",1007,88,44,8,5.121700213,-8,6,58,52,0,0
"630",170,"SU23_1007",2,"Dark Far",1007,89,154,16,7.113592734,-16,5,174,158,12,7
"631",10,"SU23_1008",1,"Light Far",1008,0,90,80,26.5172394053971,80,1,6,52,-42,15
"632",203,"SU23_1008",1,"Light Far",1008,1,219,16,10.4239776040587,16,1,199,226,-23,15
"633",158,"SU23_1008",1,"Light Far",1008,2,171,13,7.37983318077952,13,1,154,158,0,0
"634",29,"SU23_1008",1,"Light Far",1008,3,118,89,33.2435686011409,89,1,25,52,-23,7
"635",10,"SU23_1008",1,"Light Far",1008,4,137,127,46.185007079618,127,2,8,52,-42,15
"636",123,"SU23_1008",1,"Light Far",1008,5,76,47,21.8582114631195,-47,1,119,93,30,15
"637",203,"SU23_1008",1,"Light Far",1008,6,214,11,7.09587902901571,11,2,201,226,-23,15
"638",158,"SU23_1008",1,"Light Far",1008,7,171,13,7.37983318077952,13,2,156,158,0,0
"639",52,"SU23_1008",1,"Light Far",1008,8,45,7,2.2474031639334,-7,1,48,52,0,0
"640",185,"SU23_1008",1,"Light Far",1008,9,172,13,7.31505886342667,-13,1,181,158,27,15
"641",146,"SU23_1008",1,"Light Far",1008,10,142,4,2.50687026686062,-4,1,142,158,-12,7
"642",251,"SU23_1008",1,"Light Far",1008,11,120,131,49.7630476453411,-131,1,247,226,25,15
"643",216,"SU23_1008",1,"Light Far",1008,12,217,1,0.664428961246374,1,1,212,226,-10,7
"644",76,"SU23_1008",1,"Light Far",1008,13,81,5,2.00599951011278,5,1,72,93,-17,7
"645",108,"SU23_1008",1,"Light Far",1008,14,99,9,4.36992546193349,-9,1,104,93,15,7
"646",226,"SU23_1008",1,"Light Far",1008,15,209,17,11.2865621638654,-17,1,222,226,0,0
"647",241,"SU23_1008",1,"Light Far",1008,16,200,41,22.2452286532711,-41,1,237,226,15,7
"648",185,"SU23_1008",1,"Light Far",1008,17,158,27,15.1361882717994,-27,2,183,158,27,15
"649",108,"SU23_1008",1,"Light Far",1008,18,76,32,14.0761443875026,-32,2,106,93,15,7
"650",216,"SU23_1008",1,"Light Far",1008,19,223,7,4.67986714449112,7,2,214,226,-10,7
"651",72,"SU23_1008",1,"Light Far",1008,20,42,30,10.2669516167821,-30,1,68,52,20,7
"652",93,"SU23_1008",1,"Light Far",1008,21,69,24,9.76863887529672,-24,1,89,93,0,0
"653",72,"SU23_1008",1,"Light Far",1008,22,42,30,10.2669516167821,-30,2,70,52,20,7
"654",146,"SU23_1008",1,"Light Far",1008,23,122,24,14.6749080363412,-24,2,144,158,-12,7
"655",170,"SU23_1008",1,"Light Far",1008,24,162,8,4.52073698451452,-8,1,166,158,12,7
"656",52,"SU23_1008",1,"Light Far",1008,25,46,6,1.93465491111231,-6,2,50,52,0,0
"657",133,"SU23_1008",1,"Light Far",1008,26,110,23,13.1634234948852,-23,1,129,158,-25,15
"658",93,"SU23_1008",1,"Light Far",1008,27,85,8,3.45395985414324,-8,2,91,93,0,0
"659",251,"SU23_1008",1,"Light Far",1008,28,248,3,3.64713105702336,-3,2,249,226,25,15
"660",226,"SU23_1008",1,"Light Far",1008,29,219,7,4.6749024913049,-7,2,224,226,0,0
"661",76,"SU23_1008",1,"Light Far",1008,30,43,33,11.5010580330115,-33,2,74,93,-17,7
"662",123,"SU23_1008",1,"Light Far",1008,31,116,7,3.95884848859516,-7,2,121,93,30,15
"663",241,"SU23_1008",1,"Light Far",1008,32,246,5,4.53326135253356,5,2,239,226,15,7
"664",29,"SU23_1008",1,"Light Far",1008,33,3,26,18.2549433105519,-26,2,27,52,-23,7
"665",170,"SU23_1008",1,"Light Far",1008,34,166,4,2.24908446913173,-4,2,168,158,12,7
"666",133,"SU23_1008",1,"Light Far",1008,35,115,18,10.5329875807259,-18,2,131,158,-25,15
"667",216,"SU23_1008",1,"Light Far",1008,36,214,2,1.32832264320721,-2,3,216,226,-10,7
"668",29,"SU23_1008",1,"Light Far",1008,37,5,24,14.4898350693757,-24,3,29,52,-23,7
"669",76,"SU23_1008",1,"Light Far",1008,38,64,12,4.54226358898341,-12,3,76,93,-17,7
"670",10,"SU23_1008",1,"Light Far",1008,39,1,9,15.4530978004648,-9,3,10,52,-42,15
"671",203,"SU23_1008",1,"Light Far",1008,40,221,18,11.7638176637381,18,3,203,226,-23,15
"672",216,"SU23_1008",1,"Light Far",1008,41,231,15,9.93877680533065,15,4,218,226,-10,7
"673",93,"SU23_1008",1,"Light Far",1008,42,68,25,10.1383567609032,-25,3,93,93,0,0
"674",72,"SU23_1008",1,"Light Far",1008,43,40,32,10.8552558416393,-32,3,72,52,20,7
"675",133,"SU23_1008",1,"Light Far",1008,44,100,33,17.9781442061631,-33,3,133,158,-25,15
"676",72,"SU23_1008",1,"Light Far",1008,45,46,26,9.05398775112305,-26,4,74,52,20,7
"677",203,"SU23_1008",1,"Light Far",1008,46,178,25,14.6491191603209,-25,4,205,226,-23,15
"678",251,"SU23_1008",1,"Light Far",1008,47,252,1,1.36602613783589,1,3,251,226,25,15
"679",93,"SU23_1008",1,"Light Far",1008,48,77,16,6.70634041490906,-16,4,95,93,0,0
"680",170,"SU23_1008",1,"Light Far",1008,49,159,11,6.24495246989576,-11,3,170,158,12,7
"681",146,"SU23_1008",1,"Light Far",1008,50,133,13,8.12716379502398,-13,3,146,158,-12,7
"682",123,"SU23_1008",1,"Light Far",1008,51,114,9,5.04128141610352,-9,3,123,93,30,15
"683",10,"SU23_1008",1,"Light Far",1008,52,8,2,0.555705893533505,-2,4,12,52,-42,15
"684",52,"SU23_1008",1,"Light Far",1008,53,45,7,2.2474031639334,-7,3,52,52,0,0
"685",158,"SU23_1008",1,"Light Far",1008,54,167,9,5.14866729580578,9,3,158,158,0,0
"686",185,"SU23_1008",1,"Light Far",1008,55,183,2,1.14185197058208,-2,3,185,158,27,15
"687",108,"SU23_1008",1,"Light Far",1008,56,68,40,17.0382970061125,-40,3,108,93,15,7
"688",241,"SU23_1008",1,"Light Far",1008,57,220,21,10.4063532140496,-21,3,241,226,15,7
"689",158,"SU23_1008",1,"Light Far",1008,58,161,3,1.74122474033835,3,4,160,158,0,0
"690",185,"SU23_1008",1,"Light Far",1008,59,186,1,0.573410405893885,1,4,187,158,27,15
"691",29,"SU23_1008",1,"Light Far",1008,60,16,13,6.04293308805251,-13,4,31,52,-23,7
"692",226,"SU23_1008",1,"Light Far",1008,61,226,0,0,0,3,226,226,0,0
"693",108,"SU23_1008",1,"Light Far",1008,62,73,35,15.2099563280175,-35,4,110,93,15,7
"694",133,"SU23_1008",1,"Light Far",1008,63,102,31,17.0613123599788,-31,4,135,158,-25,15
"695",123,"SU23_1008",1,"Light Far",1008,64,124,1,0.585648720822982,1,4,125,93,30,15
"696",52,"SU23_1008",1,"Light Far",1008,65,41,11,3.4741527236759,-11,4,54,52,0,0
"697",251,"SU23_1008",1,"Light Far",1008,66,252,1,1.36602613783589,1,4,253,226,25,15
"698",226,"SU23_1008",1,"Light Far",1008,67,236,10,5.75967155032789,10,4,228,226,0,0
"699",146,"SU23_1008",1,"Light Far",1008,68,122,24,14.6749080363412,-24,4,148,158,-12,7
"700",170,"SU23_1008",1,"Light Far",1008,69,159,11,6.24495246989576,-11,4,172,158,12,7
"701",241,"SU23_1008",1,"Light Far",1008,70,225,16,7.48610970675003,-16,4,243,226,15,7
"702",76,"SU23_1008",1,"Light Far",1008,71,41,35,12.0919772674718,-35,4,78,93,-17,7
"703",185,"SU23_1008",1,"Light Far",1008,72,181,4,2.27494977349928,-4,5,189,158,27,15
"704",93,"SU23_1008",1,"Light Far",1008,73,63,30,11.9432332033281,-30,5,97,93,0,0
"705",108,"SU23_1008",1,"Light Far",1008,74,72,36,15.5817073695696,-36,5,112,93,15,7
"706",158,"SU23_1008",1,"Light Far",1008,75,163,5,2.88717837900862,5,5,162,158,0,0
"707",241,"SU23_1008",1,"Light Far",1008,76,221,20,9.80947673906934,-20,5,245,226,15,7
"708",10,"SU23_1008",1,"Light Far",1008,77,3,7,10.2216107697739,-7,5,14,52,-42,15
"709",93,"SU23_1008",1,"Light Far",1008,78,80,13,5.50942222064807,-13,6,99,93,0,0
"710",52,"SU23_1008",1,"Light Far",1008,79,46,6,1.93465491111231,-6,5,56,52,0,0
"711",133,"SU23_1008",1,"Light Far",1008,80,140,7,4.37776749861618,7,5,137,158,-25,15
"712",146,"SU23_1008",1,"Light Far",1008,81,148,2,1.24270265529516,2,5,150,158,-12,7
"713",72,"SU23_1008",1,"Light Far",1008,82,74,2,0.773246145327871,2,5,76,52,20,7
"714",76,"SU23_1008",1,"Light Far",1008,83,42,34,11.7979867703923,-34,5,80,93,-17,7
"715",29,"SU23_1008",1,"Light Far",1008,84,20,9,3.98312513968071,-9,5,33,52,-23,7
"716",226,"SU23_1008",1,"Light Far",1008,85,217,9,6.01305828882443,-9,5,230,226,0,0
"717",203,"SU23_1008",1,"Light Far",1008,86,192,11,6.67823310521706,-11,5,207,226,-23,15
"718",185,"SU23_1008",1,"Light Far",1008,87,172,13,7.31505886342667,-13,6,191,158,27,15
"719",52,"SU23_1008",1,"Light Far",1008,88,61,9,3.08743555066801,9,6,58,52,0,0
"720",170,"SU23_1008",1,"Light Far",1008,89,156,14,7.9894845822029,-14,5,174,158,12,7
"721",10,"SU23_1009",2,"Dark Far",1009,0,4,6,6.73269665338533,-6,1,6,52,-42,15
"722",203,"SU23_1009",2,"Dark Far",1009,1,199,4,1.34530917524152,-4,1,199,226,-23,15
"723",158,"SU23_1009",2,"Dark Far",1009,2,160,2,0.911406381676915,2,1,154,158,0,0
"724",29,"SU23_1009",2,"Dark Far",1009,3,47,18,11.9325121142908,18,1,25,52,-23,7
"725",10,"SU23_1009",2,"Dark Far",1009,4,4,6,6.73269665338533,-6,2,8,52,-42,15
"726",123,"SU23_1009",2,"Dark Far",1009,5,127,4,2.44364489557229,4,1,119,93,30,15
"727",203,"SU23_1009",2,"Dark Far",1009,6,198,5,1.68847397976124,-5,2,201,226,-23,15
"728",158,"SU23_1009",2,"Dark Far",1009,7,165,7,3.12688372769729,7,2,156,158,0,0
"729",52,"SU23_1009",2,"Dark Far",1009,8,36,16,10.4239776040587,-16,1,48,52,0,0
"730",185,"SU23_1009",2,"Dark Far",1009,9,166,19,7.66207471719716,-19,1,181,158,27,15
"731",146,"SU23_1009",2,"Dark Far",1009,10,110,36,21.0987995730547,-36,1,142,158,-12,7
"732",251,"SU23_1009",2,"Dark Far",1009,11,254,3,8.09094417490582,3,1,247,226,25,15
"733",216,"SU23_1009",2,"Dark Far",1009,12,208,8,2.46691075570496,-8,1,212,226,-10,7
"734",76,"SU23_1009",2,"Dark Far",1009,13,89,13,7.27684789055818,13,1,72,93,-17,7
"735",108,"SU23_1009",2,"Dark Far",1009,14,89,19,11.1539351854723,-19,1,104,93,15,7
"736",226,"SU23_1009",2,"Dark Far",1009,15,221,5,1.72364976891318,-5,1,222,226,0,0
"737",241,"SU23_1009",2,"Dark Far",1009,16,239,2,1.08002837791096,-2,1,237,226,15,7
"738",185,"SU23_1009",2,"Dark Far",1009,17,181,4,1.53595650251514,-4,2,183,158,27,15
"739",108,"SU23_1009",2,"Dark Far",1009,18,79,29,16.5842940660228,-29,2,106,93,15,7
"740",216,"SU23_1009",2,"Dark Far",1009,19,222,6,1.87125757385586,6,2,214,226,-10,7
"741",72,"SU23_1009",2,"Dark Far",1009,20,48,24,14.3728750258891,-24,1,68,52,20,7
"742",93,"SU23_1009",2,"Dark Far",1009,21,90,3,1.70976026835225,-3,1,89,93,0,0
"743",72,"SU23_1009",2,"Dark Far",1009,22,44,28,16.9362695555912,-28,2,70,52,20,7
"744",146,"SU23_1009",2,"Dark Far",1009,23,123,23,13.0540989635015,-23,2,144,158,-12,7
"745",170,"SU23_1009",2,"Dark Far",1009,24,160,10,4.3488187410176,-10,1,166,158,12,7
"746",52,"SU23_1009",2,"Dark Far",1009,25,43,9,5.77775888066201,-9,2,50,52,0,0
"747",133,"SU23_1009",2,"Dark Far",1009,26,96,37,22.2000139256179,-37,1,129,158,-25,15
"748",93,"SU23_1009",2,"Dark Far",1009,27,89,4,2.27532229445329,-4,2,91,93,0,0
"749",251,"SU23_1009",2,"Dark Far",1009,28,255,4,11.4981711492162,4,2,249,226,25,15
"750",226,"SU23_1009",2,"Dark Far",1009,29,220,6,2.03820677222498,-6,2,224,226,0,0
"751",76,"SU23_1009",2,"Dark Far",1009,30,55,21,12.2498299419931,-21,2,74,93,-17,7
"752",123,"SU23_1009",2,"Dark Far",1009,31,102,21,12.974563987485,-21,2,121,93,30,15
"753",241,"SU23_1009",2,"Dark Far",1009,32,236,5,2.65586172235207,-5,2,239,226,15,7
"754",29,"SU23_1009",2,"Dark Far",1009,33,3,26,15.5659928281734,-26,2,27,52,-23,7
"755",170,"SU23_1009",2,"Dark Far",1009,34,148,22,10.0063384662485,-22,2,168,158,12,7
"756",133,"SU23_1009",2,"Dark Far",1009,35,117,16,9.7211688250765,-16,2,131,158,-25,15
"757",216,"SU23_1009",2,"Dark Far",1009,36,197,19,6.09187920890425,-19,3,216,226,-10,7
"758",29,"SU23_1009",2,"Dark Far",1009,37,3,26,15.5659928281734,-26,3,29,52,-23,7
"759",76,"SU23_1009",2,"Dark Far",1009,38,92,16,8.96463949949498,16,3,76,93,-17,7
"760",10,"SU23_1009",2,"Dark Far",1009,39,0,10,12.5023307198184,-10,3,10,52,-42,15
"761",203,"SU23_1009",2,"Dark Far",1009,40,218,15,4.67208092354189,15,3,203,226,-23,15
"762",216,"SU23_1009",2,"Dark Far",1009,41,213,3,0.915541147670224,-3,4,218,226,-10,7
"763",93,"SU23_1009",2,"Dark Far",1009,42,90,3,1.70976026835225,-3,3,93,93,0,0
"764",72,"SU23_1009",2,"Dark Far",1009,43,45,27,16.2914850740561,-27,3,72,52,20,7
"765",133,"SU23_1009",2,"Dark Far",1009,44,99,34,20.5444308179545,-34,3,133,158,-25,15
"766",72,"SU23_1009",2,"Dark Far",1009,45,38,34,20.8633446361384,-34,4,74,52,20,7
"767",203,"SU23_1009",2,"Dark Far",1009,46,194,9,3.08743555066801,-9,4,205,226,-23,15
"768",251,"SU23_1009",2,"Dark Far",1009,47,255,4,11.4981711492162,4,3,251,226,25,15
"769",93,"SU23_1009",2,"Dark Far",1009,48,79,14,7.86201055202875,-14,4,95,93,0,0
"770",170,"SU23_1009",2,"Dark Far",1009,49,146,24,11.0009334217072,-24,3,170,158,12,7
"771",146,"SU23_1009",2,"Dark Far",1009,50,118,28,16.1571013806796,-28,3,146,158,-12,7
"772",123,"SU23_1009",2,"Dark Far",1009,51,100,23,14.1424631236566,-23,3,123,93,30,15
"773",10,"SU23_1009",2,"Dark Far",1009,52,2,8,9.46354958030653,-8,4,12,52,-42,15
"774",52,"SU23_1009",2,"Dark Far",1009,53,45,7,4.47061523481657,-7,3,52,52,0,0
"775",158,"SU23_1009",2,"Dark Far",1009,54,127,31,16.2889392249092,-31,3,158,158,0,0
"776",185,"SU23_1009",2,"Dark Far",1009,55,154,31,13.0004693404393,-31,3,185,158,27,15
"777",108,"SU23_1009",2,"Dark Far",1009,56,81,27,15.5081856019628,-27,3,108,93,15,7
"778",241,"SU23_1009",2,"Dark Far",1009,57,245,4,2.20053803069266,4,3,241,226,15,7
"779",158,"SU23_1009",2,"Dark Far",1009,58,133,25,12.7957278153667,-25,4,160,158,0,0
"780",185,"SU23_1009",2,"Dark Far",1009,59,158,27,11.1747836184406,-27,4,187,158,27,15
"781",29,"SU23_1009",2,"Dark Far",1009,60,15,14,6.53168527186293,-14,4,31,52,-23,7
"782",226,"SU23_1009",2,"Dark Far",1009,61,228,2,0.782991355359103,2,3,226,226,0,0
"783",108,"SU23_1009",2,"Dark Far",1009,62,85,23,13.3451152032194,-23,4,110,93,15,7
"784",133,"SU23_1009",2,"Dark Far",1009,63,105,28,17.0824649231345,-28,4,135,158,-25,15
"785",123,"SU23_1009",2,"Dark Far",1009,64,83,40,23.3295221226949,-40,4,125,93,30,15
"786",52,"SU23_1009",2,"Dark Far",1009,65,42,10,6.43389736187828,-10,4,54,52,0,0
"787",251,"SU23_1009",2,"Dark Far",1009,66,253,2,5.07362392958611,2,4,253,226,25,15
"788",226,"SU23_1009",2,"Dark Far",1009,67,229,3,1.19753053164216,3,4,228,226,0,0
"789",146,"SU23_1009",2,"Dark Far",1009,68,117,29,16.7801003420412,-29,4,148,158,-12,7
"790",170,"SU23_1009",2,"Dark Far",1009,69,132,38,18.4228283174152,-38,4,172,158,12,7
"791",241,"SU23_1009",2,"Dark Far",1009,70,241,0,0,0,4,243,226,15,7
"792",76,"SU23_1009",2,"Dark Far",1009,71,42,34,20.447436513148,-34,4,78,93,-17,7
"793",185,"SU23_1009",2,"Dark Far",1009,72,157,28,11.6267150534824,-28,5,189,158,27,15
"794",93,"SU23_1009",2,"Dark Far",1009,73,80,13,7.30565388641664,-13,5,97,93,0,0
"795",108,"SU23_1009",2,"Dark Far",1009,74,89,19,11.1539351854723,-19,5,112,93,15,7
"796",158,"SU23_1009",2,"Dark Far",1009,75,132,26,13.3666444060965,-26,5,162,158,0,0
"797",241,"SU23_1009",2,"Dark Far",1009,76,243,2,1.09615303347417,2,5,245,226,15,7
"798",10,"SU23_1009",2,"Dark Far",1009,77,3,7,8.06251765245256,-7,5,14,52,-42,15
"799",93,"SU23_1009",2,"Dark Far",1009,78,73,20,11.2037652541589,-20,6,99,93,0,0
"800",52,"SU23_1009",2,"Dark Far",1009,79,51,1,0.627188226005665,-1,5,56,52,0,0
"801",133,"SU23_1009",2,"Dark Far",1009,80,65,68,37.6200085773248,-68,5,137,158,-25,15
"802",146,"SU23_1009",2,"Dark Far",1009,81,85,61,34.5399819745246,-61,5,150,158,-12,7
"803",72,"SU23_1009",2,"Dark Far",1009,82,46,26,15.6484307601705,-26,5,76,52,20,7
"804",76,"SU23_1009",2,"Dark Far",1009,83,42,34,20.447436513148,-34,5,80,93,-17,7
"805",29,"SU23_1009",2,"Dark Far",1009,84,20,9,5.75967155032789,-9,5,33,52,-23,7
"806",226,"SU23_1009",2,"Dark Far",1009,85,224,2,0.725233465892022,-2,5,230,226,0,0
"807",203,"SU23_1009",2,"Dark Far",1009,86,209,6,1.93465491111231,6,5,207,226,-23,15
"808",185,"SU23_1009",2,"Dark Far",1009,87,190,5,1.86171145882996,5,6,191,158,27,15
"809",52,"SU23_1009",2,"Dark Far",1009,88,40,12,7.75639578098561,-12,6,58,52,0,0
"810",170,"SU23_1009",2,"Dark Far",1009,89,144,26,12.0113264976252,-26,5,174,158,12,7
"811",10,"SU23_1010",1,"Light Far",1010,0,32,22,10.2300452617436,22,1,6,52,-42,15
"812",203,"SU23_1010",1,"Light Far",1010,1,178,25,14.6491191603209,-25,1,199,226,-23,15
"813",158,"SU23_1010",1,"Light Far",1010,2,147,11,6.62847768488478,-11,1,154,158,0,0
"814",29,"SU23_1010",1,"Light Far",1010,3,42,13,4.11883309881073,13,1,25,52,-23,7
"815",10,"SU23_1010",1,"Light Far",1010,4,8,2,0.555705893533505,-2,2,8,52,-42,15
"816",123,"SU23_1010",1,"Light Far",1010,5,120,3,1.72809628366302,-3,1,119,93,30,15
"817",203,"SU23_1010",1,"Light Far",1010,6,206,3,1.89444515730849,3,2,201,226,-23,15
"818",158,"SU23_1010",1,"Light Far",1010,7,164,6,3.45609619211873,6,2,156,158,0,0
"819",52,"SU23_1010",1,"Light Far",1010,8,54,2,0.667165467393161,2,1,48,52,0,0
"820",185,"SU23_1010",1,"Light Far",1010,9,194,9,5.24733727748602,9,1,181,158,27,15
"821",146,"SU23_1010",1,"Light Far",1010,10,141,5,3.13550497862653,-5,1,142,158,-12,7
"822",251,"SU23_1010",1,"Light Far",1010,11,251,0,0,0,1,247,226,25,15
"823",216,"SU23_1010",1,"Light Far",1010,12,196,20,12.7091305619349,-20,1,212,226,-10,7
"824",76,"SU23_1010",1,"Light Far",1010,13,72,4,1.55686471862741,-4,1,72,93,-17,7
"825",108,"SU23_1010",1,"Light Far",1010,14,99,9,4.36992546193349,-9,1,104,93,15,7
"826",226,"SU23_1010",1,"Light Far",1010,15,223,3,1.99651715410063,-3,1,222,226,0,0
"827",241,"SU23_1010",1,"Light Far",1010,16,245,4,3.5492239818348,4,1,237,226,15,7
"828",185,"SU23_1010",1,"Light Far",1010,17,172,13,7.31505886342667,-13,2,183,158,27,15
"829",108,"SU23_1010",1,"Light Far",1010,18,97,11,5.29279799651127,-11,2,106,93,15,7
"830",216,"SU23_1010",1,"Light Far",1010,19,177,39,23.4959476462968,-39,2,214,226,-10,7
"831",72,"SU23_1010",1,"Light Far",1010,20,60,12,4.41774407769949,-12,1,68,52,20,7
"832",93,"SU23_1010",1,"Light Far",1010,21,82,11,4.69643961893506,-11,1,89,93,0,0
"833",72,"SU23_1010",1,"Light Far",1010,22,69,3,1.14036353918845,-3,2,70,52,20,7
"834",146,"SU23_1010",1,"Light Far",1010,23,142,4,2.50687026686062,-4,2,144,158,-12,7
"835",170,"SU23_1010",1,"Light Far",1010,24,182,12,6.72751860483563,12,1,166,158,12,7
"836",52,"SU23_1010",1,"Light Far",1010,25,56,4,1.34530917524152,4,2,50,52,0,0
"837",133,"SU23_1010",1,"Light Far",1010,26,124,9,5.44613763753083,-9,1,129,158,-25,15
"838",93,"SU23_1010",1,"Light Far",1010,27,102,9,4.15040480281943,9,2,91,93,0,0
"839",251,"SU23_1010",1,"Light Far",1010,28,249,2,2.50046281569263,-2,2,249,226,25,15
"840",226,"SU23_1010",1,"Light Far",1010,29,205,21,13.8472654592532,-21,2,224,226,0,0
"841",76,"SU23_1010",1,"Light Far",1010,30,101,25,10.7291877030223,25,2,74,93,-17,7
"842",123,"SU23_1010",1,"Light Far",1010,31,127,4,2.36891535064111,4,2,121,93,30,15
"843",241,"SU23_1010",1,"Light Far",1010,32,231,10,4.58384082264774,-10,2,239,226,15,7
"844",29,"SU23_1010",1,"Light Far",1010,33,26,3,1.19753053164216,-3,2,27,52,-23,7
"845",170,"SU23_1010",1,"Light Far",1010,34,161,9,5.09333322567821,-9,2,168,158,12,7
"846",133,"SU23_1010",1,"Light Far",1010,35,133,0,0,0,2,131,158,-25,15
"847",216,"SU23_1010",1,"Light Far",1010,36,179,37,22.4095037249013,-37,3,216,226,-10,7
"848",29,"SU23_1010",1,"Light Far",1010,37,39,10,3.24154970414313,10,3,29,52,-23,7
"849",76,"SU23_1010",1,"Light Far",1010,38,90,14,5.78794916714069,14,3,76,93,-17,7
"850",10,"SU23_1010",1,"Light Far",1010,39,3,7,10.2216107697739,-7,3,10,52,-42,15
"851",203,"SU23_1010",1,"Light Far",1010,40,175,28,16.3002044702047,-28,3,203,226,-23,15
"852",216,"SU23_1010",1,"Light Far",1010,41,190,26,16.2382217187035,-26,4,218,226,-10,7
"853",93,"SU23_1010",1,"Light Far",1010,42,91,2,0.883302341018886,-2,3,93,93,0,0
"854",72,"SU23_1010",1,"Light Far",1010,43,75,3,1.16376041663223,3,3,72,52,20,7
"855",133,"SU23_1010",1,"Light Far",1010,44,121,12,7.18802766700968,-12,3,133,158,-25,15
"856",72,"SU23_1010",1,"Light Far",1010,45,85,13,5.2118222507959,13,4,74,52,20,7
"857",203,"SU23_1010",1,"Light Far",1010,46,175,28,16.3002044702047,-28,4,205,226,-23,15
"858",251,"SU23_1010",1,"Light Far",1010,47,251,0,0,0,3,251,226,25,15
"859",93,"SU23_1010",1,"Light Far",1010,48,95,2,0.897050614930159,2,4,95,93,0,0
"860",170,"SU23_1010",1,"Light Far",1010,49,162,8,4.52073698451452,-8,3,170,158,12,7
"861",146,"SU23_1010",1,"Light Far",1010,50,132,14,8.74119364830488,-14,3,146,158,-12,7
"862",123,"SU23_1010",1,"Light Far",1010,51,115,8,4.50284834808559,-8,3,123,93,30,15
"863",10,"SU23_1010",1,"Light Far",1010,52,8,2,0.555705893533505,-2,4,12,52,-42,15
"864",52,"SU23_1010",1,"Light Far",1010,53,48,4,1.30084925436631,-4,3,52,52,0,0
"865",158,"SU23_1010",1,"Light Far",1010,54,160,2,1.16390252198921,2,3,158,158,0,0
"866",185,"SU23_1010",1,"Light Far",1010,55,180,5,2.84009601989309,-5,3,185,158,27,15
"867",108,"SU23_1010",1,"Light Far",1010,56,92,16,7.52920012882728,-16,3,108,93,15,7
"868",241,"SU23_1010",1,"Light Far",1010,57,225,16,7.48610970675003,-16,3,241,226,15,7
"869",158,"SU23_1010",1,"Light Far",1010,58,145,13,7.86533819094071,-13,4,160,158,0,0
"870",185,"SU23_1010",1,"Light Far",1010,59,172,13,7.31505886342667,-13,4,187,158,27,15
"871",29,"SU23_1010",1,"Light Far",1010,60,22,7,3.00374150108635,-7,4,31,52,-23,7
"872",226,"SU23_1010",1,"Light Far",1010,61,202,24,15.7304053118108,-24,3,226,226,0,0
"873",108,"SU23_1010",1,"Light Far",1010,62,84,24,10.9121362759177,-24,4,110,93,15,7
"874",133,"SU23_1010",1,"Light Far",1010,63,97,36,19.3131927784466,-36,4,135,158,-25,15
"875",123,"SU23_1010",1,"Light Far",1010,64,93,30,15.118577952738,-30,4,125,93,30,15
"876",52,"SU23_1010",1,"Light Far",1010,65,61,9,3.08743555066801,9,4,54,52,0,0
"877",251,"SU23_1010",1,"Light Far",1010,66,246,5,5.7589410737319,-5,4,253,226,25,15
"878",226,"SU23_1010",1,"Light Far",1010,67,222,4,2.66274915716473,-4,4,228,226,0,0
"879",146,"SU23_1010",1,"Light Far",1010,68,136,10,6.26887367725134,-10,4,148,158,-12,7
"880",170,"SU23_1010",1,"Light Far",1010,69,170,0,0,0,4,172,158,12,7
"881",241,"SU23_1010",1,"Light Far",1010,70,217,24,12.2230050818788,-24,4,243,226,15,7
"882",76,"SU23_1010",1,"Light Far",1010,71,86,10,4.07940784898453,10,4,78,93,-17,7
"883",185,"SU23_1010",1,"Light Far",1010,72,175,10,5.64316720491318,-10,5,189,158,27,15
"884",93,"SU23_1010",1,"Light Far",1010,73,86,7,3.03355798079672,-7,5,97,93,0,0
"885",108,"SU23_1010",1,"Light Far",1010,74,104,4,1.98753873281057,-4,5,112,93,15,7
"886",158,"SU23_1010",1,"Light Far",1010,75,156,2,1.17673040661517,-2,5,162,158,0,0
"887",241,"SU23_1010",1,"Light Far",1010,76,214,27,14.0416599162246,-27,5,245,226,15,7
"888",10,"SU23_1010",1,"Light Far",1010,77,6,4,3.98547281219658,-4,5,14,52,-42,15
"889",93,"SU23_1010",1,"Light Far",1010,78,81,12,5.10444835329095,-12,6,99,93,0,0
"890",52,"SU23_1010",1,"Light Far",1010,79,54,2,0.667165467393161,2,5,56,52,0,0
"891",133,"SU23_1010",1,"Light Far",1010,80,120,13,7.75894500303281,-13,5,137,158,-25,15
"892",146,"SU23_1010",1,"Light Far",1010,81,137,9,5.64478064937694,-9,5,150,158,-12,7
"893",72,"SU23_1010",1,"Light Far",1010,82,75,3,1.16376041663223,3,5,76,52,20,7
"894",76,"SU23_1010",1,"Light Far",1010,83,75,1,0.393204455575373,-1,5,80,93,-17,7
"895",29,"SU23_1010",1,"Light Far",1010,84,10,19,9.24029909061961,-19,5,33,52,-23,7
"896",226,"SU23_1010",1,"Light Far",1010,85,191,35,22.3284933121719,-35,5,230,226,0,0
"897",203,"SU23_1010",1,"Light Far",1010,86,177,26,15.2007663121417,-26,5,207,226,-23,15
"898",185,"SU23_1010",1,"Light Far",1010,87,165,20,11.2095665037097,-20,6,191,158,27,15
"899",52,"SU23_1010",1,"Light Far",1010,88,49,3,0.979846848708749,-3,6,58,52,0,0
"900",170,"SU23_1010",1,"Light Far",1010,89,163,7,3.95014544180073,-7,5,174,158,12,7
"901",10,"SU23_1011",2,"Dark Far",1011,0,17,7,5.83708450253568,7,1,6,52,-42,15
"902",203,"SU23_1011",2,"Dark Far",1011,1,192,11,3.8022941809984,-11,1,199,226,-23,15
"903",158,"SU23_1011",2,"Dark Far",1011,2,167,9,3.98883175979113,9,1,154,158,0,0
"904",29,"SU23_1011",2,"Dark Far",1011,3,19,10,5.75967155032789,-10,1,25,52,-23,7
"905",10,"SU23_1011",2,"Dark Far",1011,4,8,2,2.03231021091777,-2,2,8,52,-42,15
"906",123,"SU23_1011",2,"Dark Far",1011,5,154,31,16.9075123712402,31,1,119,93,30,15
"907",203,"SU23_1011",2,"Dark Far",1011,6,192,11,3.8022941809984,-11,2,201,226,-23,15
"908",158,"SU23_1011",2,"Dark Far",1011,7,168,10,4.4147800551526,10,2,156,158,0,0
"909",52,"SU23_1011",2,"Dark Far",1011,8,54,2,1.24665338653515,2,1,48,52,0,0
"910",185,"SU23_1011",2,"Dark Far",1011,9,195,10,3.65655048465708,10,1,181,158,27,15
"911",146,"SU23_1011",2,"Dark Far",1011,10,98,48,27.9916132854999,-48,1,142,158,-12,7
"912",251,"SU23_1011",2,"Dark Far",1011,11,251,0,0,0,1,247,226,25,15
"913",216,"SU23_1011",2,"Dark Far",1011,12,229,13,4.38961470762689,13,1,212,226,-10,7
"914",76,"SU23_1011",2,"Dark Far",1011,13,96,20,11.2336177234263,20,1,72,93,-17,7
"915",108,"SU23_1011",2,"Dark Far",1011,14,108,0,0,0,1,104,93,15,7
"916",226,"SU23_1011",2,"Dark Far",1011,15,223,3,1.06864339764029,-3,1,222,226,0,0
"917",241,"SU23_1011",2,"Dark Far",1011,16,228,13,6.3438845235752,-13,1,237,226,15,7
"918",185,"SU23_1011",2,"Dark Far",1011,17,196,11,4.00721968355424,11,2,183,158,27,15
"919",108,"SU23_1011",2,"Dark Far",1011,18,100,8,4.86821667129358,-8,2,106,93,15,7
"920",216,"SU23_1011",2,"Dark Far",1011,19,199,17,5.40917001348252,-17,2,214,226,-10,7
"921",72,"SU23_1011",2,"Dark Far",1011,20,52,20,11.8589462128208,-20,1,68,52,20,7
"922",93,"SU23_1011",2,"Dark Far",1011,21,59,34,19.1838684802255,-34,1,89,93,0,0
"923",72,"SU23_1011",2,"Dark Far",1011,22,53,19,11.2377274615705,-19,2,70,52,20,7
"924",146,"SU23_1011",2,"Dark Far",1011,23,162,16,7.59409048890769,16,2,144,158,-12,7
"925",170,"SU23_1011",2,"Dark Far",1011,24,187,17,6.71961188311527,17,1,166,158,12,7
"926",52,"SU23_1011",2,"Dark Far",1011,25,60,8,4.8979149506346,8,2,50,52,0,0
"927",133,"SU23_1011",2,"Dark Far",1011,26,94,39,23.2771523039733,-39,1,129,158,-25,15
"928",93,"SU23_1011",2,"Dark Far",1011,27,90,3,1.70976026835225,-3,2,91,93,0,0
"929",251,"SU23_1011",2,"Dark Far",1011,28,221,30,17.6312947781098,-30,2,249,226,25,15
"930",226,"SU23_1011",2,"Dark Far",1011,29,217,9,2.94633997824858,-9,2,224,226,0,0
"931",76,"SU23_1011",2,"Dark Far",1011,30,98,22,12.3775730559307,22,2,74,93,-17,7
"932",123,"SU23_1011",2,"Dark Far",1011,31,109,14,8.74119364830488,-14,2,121,93,30,15
"933",241,"SU23_1011",2,"Dark Far",1011,32,226,15,7.10168117952895,-15,2,239,226,15,7
"934",29,"SU23_1011",2,"Dark Far",1011,33,18,11,5.82398534456044,-11,2,27,52,-23,7
"935",170,"SU23_1011",2,"Dark Far",1011,34,185,15,5.97129010607492,15,2,168,158,12,7
"936",133,"SU23_1011",2,"Dark Far",1011,35,114,19,11.5905509712674,-19,2,131,158,-25,15
"937",216,"SU23_1011",2,"Dark Far",1011,36,170,46,16.2276763931727,-46,3,216,226,-10,7
"938",29,"SU23_1011",2,"Dark Far",1011,37,12,17,7.96061140602401,-17,3,29,52,-23,7
"939",76,"SU23_1011",2,"Dark Far",1011,38,62,14,8.04762739113781,-14,3,76,93,-17,7
"940",10,"SU23_1011",2,"Dark Far",1011,39,7,3,3.12275371666425,-3,3,10,52,-42,15
"941",203,"SU23_1011",2,"Dark Far",1011,40,183,20,7.139865788893,-20,3,203,226,-23,15
"942",216,"SU23_1011",2,"Dark Far",1011,41,197,19,6.09187920890425,-19,4,218,226,-10,7
"943",93,"SU23_1011",2,"Dark Far",1011,42,75,18,10.0869244484885,-18,3,93,93,0,0
"944",72,"SU23_1011",2,"Dark Far",1011,43,55,17,10.0072255523385,-17,3,72,52,20,7
"945",133,"SU23_1011",2,"Dark Far",1011,44,110,23,14.06326429314,-23,3,133,158,-25,15
"946",72,"SU23_1011",2,"Dark Far",1011,45,79,7,3.9442715967552,7,4,74,52,20,7
"947",203,"SU23_1011",2,"Dark Far",1011,46,193,10,3.44360027657956,-10,4,205,226,-23,15
"948",251,"SU23_1011",2,"Dark Far",1011,47,230,21,14.9422598293906,-21,3,251,226,25,15
"949",93,"SU23_1011",2,"Dark Far",1011,48,75,18,10.0869244484885,-18,4,95,93,0,0
"950",170,"SU23_1011",2,"Dark Far",1011,49,173,3,1.2456620425403,3,3,170,158,12,7
"951",146,"SU23_1011",2,"Dark Far",1011,50,108,38,22.3034917198816,-38,3,146,158,-12,7
"952",123,"SU23_1011",2,"Dark Far",1011,51,77,46,26.3773799937708,-46,3,123,93,30,15
"953",10,"SU23_1011",2,"Dark Far",1011,52,4,6,6.73269665338533,-6,4,12,52,-42,15
"954",52,"SU23_1011",2,"Dark Far",1011,53,56,4,2.47846334500172,4,3,52,52,0,0
"955",158,"SU23_1011",2,"Dark Far",1011,54,173,15,6.49572791518838,15,3,158,158,0,0
"956",185,"SU23_1011",2,"Dark Far",1011,55,204,19,6.70897673184214,19,3,185,158,27,15
"957",108,"SU23_1011",2,"Dark Far",1011,56,103,5,3.07002420088501,-5,3,108,93,15,7
"958",241,"SU23_1011",2,"Dark Far",1011,57,221,20,8.70972902044414,-20,3,241,226,15,7
"959",158,"SU23_1011",2,"Dark Far",1011,58,158,0,0,0,4,160,158,0,0
"960",185,"SU23_1011",2,"Dark Far",1011,59,187,2,0.75254634827797,2,4,187,158,27,15
"961",29,"SU23_1011",2,"Dark Far",1011,60,14,15,6.93403983281149,-15,4,31,52,-23,7
"962",226,"SU23_1011",2,"Dark Far",1011,61,222,4,1.40101099623224,-4,3,226,226,0,0
"963",108,"SU23_1011",2,"Dark Far",1011,62,71,37,20.8798283034808,-37,4,110,93,15,7
"964",133,"SU23_1011",2,"Dark Far",1011,63,103,30,18.2580055053443,-30,4,135,158,-25,15
"965",123,"SU23_1011",2,"Dark Far",1011,64,114,9,5.62257727941195,-9,4,125,93,30,15
"966",52,"SU23_1011",2,"Dark Far",1011,65,52,0,0,0,4,54,52,0,0
"967",251,"SU23_1011",2,"Dark Far",1011,66,219,32,18.067355629575,-32,4,253,226,25,15
"968",226,"SU23_1011",2,"Dark Far",1011,67,207,19,5.8947284179042,-19,4,228,226,0,0
"969",146,"SU23_1011",2,"Dark Far",1011,68,161,15,7.15131644737107,15,4,148,158,-12,7
"970",170,"SU23_1011",2,"Dark Far",1011,69,185,15,5.97129010607492,15,4,172,158,12,7
"971",241,"SU23_1011",2,"Dark Far",1011,70,223,18,8.11073514743527,-18,4,243,226,15,7
"972",76,"SU23_1011",2,"Dark Far",1011,71,85,9,5.03837361839556,9,4,78,93,-17,7
"973",185,"SU23_1011",2,"Dark Far",1011,72,195,10,3.65655048465708,10,5,189,158,27,15
"974",93,"SU23_1011",2,"Dark Far",1011,73,91,2,1.14213169366822,-2,5,97,93,0,0
"975",108,"SU23_1011",2,"Dark Far",1011,74,97,11,6.62847768488478,-11,5,112,93,15,7
"976",158,"SU23_1011",2,"Dark Far",1011,75,161,3,1.36160909840099,3,5,162,158,0,0
"977",241,"SU23_1011",2,"Dark Far",1011,76,226,15,7.10168117952895,-15,5,245,226,15,7
"978",10,"SU23_1011",2,"Dark Far",1011,77,6,4,4.26710885847712,-4,5,14,52,-42,15
"979",93,"SU23_1011",2,"Dark Far",1011,78,91,2,1.14213169366822,-2,6,99,93,0,0
"980",52,"SU23_1011",2,"Dark Far",1011,79,56,4,2.47846334500172,4,5,56,52,0,0
"981",133,"SU23_1011",2,"Dark Far",1011,80,99,34,20.5444308179545,-34,5,137,158,-25,15
"982",146,"SU23_1011",2,"Dark Far",1011,81,99,47,27.4507113222916,-47,5,150,158,-12,7
"983",72,"SU23_1011",2,"Dark Far",1011,82,67,5,2.86821186961669,-5,5,76,52,20,7
"984",76,"SU23_1011",2,"Dark Far",1011,83,67,9,5.12772019509093,-9,5,80,93,-17,7
"985",29,"SU23_1011",2,"Dark Far",1011,84,13,16,7.41216109382085,-16,5,33,52,-23,7
"986",226,"SU23_1011",2,"Dark Far",1011,85,205,21,6.50430448063793,-21,5,230,226,0,0
"987",203,"SU23_1011",2,"Dark Far",1011,86,202,1,0.332249037881992,-1,5,207,226,-23,15
"988",185,"SU23_1011",2,"Dark Far",1011,87,193,8,2.94682686890311,8,6,191,158,27,15
"989",52,"SU23_1011",2,"Dark Far",1011,88,46,6,3.82136821005589,-6,6,58,52,0,0
"990",170,"SU23_1011",2,"Dark Far",1011,89,173,3,1.2456620425403,3,5,174,158,12,7
"991",10,"SU23_1012",1,"Light Far",1012,0,5,5,5.89844534490897,-5,1,6,52,-42,15
"992",203,"SU23_1012",1,"Light Far",1012,1,221,18,11.7638176637381,18,1,199,226,-23,15
"993",158,"SU23_1012",1,"Light Far",1012,2,161,3,1.74122474033835,3,1,154,158,0,0
"994",29,"SU23_1012",1,"Light Far",1012,3,34,5,1.72364976891318,5,1,25,52,-23,7
"995",10,"SU23_1012",1,"Light Far",1012,4,0,10,18.514648220112,-10,2,8,52,-42,15
"996",123,"SU23_1012",1,"Light Far",1012,5,123,0,0,0,1,119,93,30,15
"997",203,"SU23_1012",1,"Light Far",1012,6,216,13,8.42320226703444,13,2,201,226,-23,15
"998",158,"SU23_1012",1,"Light Far",1012,7,170,12,6.82413469960483,12,2,156,158,0,0
"999",52,"SU23_1012",1,"Light Far",1012,8,48,4,1.30084925436631,-4,1,48,52,0,0
"1000",185,"SU23_1012",1,"Light Far",1012,9,196,11,6.44293040071903,11,1,181,158,27,15
"1001",146,"SU23_1012",1,"Light Far",1012,10,167,21,12.3126756117243,21,1,142,158,-12,7
"1002",251,"SU23_1012",1,"Light Far",1012,11,255,4,6.01895261668585,4,1,247,226,25,15
"1003",216,"SU23_1012",1,"Light Far",1012,12,228,12,7.99474903004323,12,1,212,226,-10,7
"1004",76,"SU23_1012",1,"Light Far",1012,13,90,14,5.78794916714069,14,1,72,93,-17,7
"1005",108,"SU23_1012",1,"Light Far",1012,14,90,18,8.39670881375519,-18,1,104,93,15,7
"1006",226,"SU23_1012",1,"Light Far",1012,15,233,7,4.51979256221399,7,1,222,226,0,0
"1007",241,"SU23_1012",1,"Light Far",1012,16,245,4,3.5492239818348,4,1,237,226,15,7
"1008",185,"SU23_1012",1,"Light Far",1012,17,197,12,7.04563627530329,12,2,183,158,27,15
"1009",108,"SU23_1012",1,"Light Far",1012,18,87,21,9.67037818159414,-21,2,106,93,15,7
"1010",216,"SU23_1012",1,"Light Far",1012,19,207,9,5.8916567097069,-9,2,214,226,-10,7
"1011",72,"SU23_1012",1,"Light Far",1012,20,58,14,5.11574653222344,-14,1,68,52,20,7
"1012",93,"SU23_1012",1,"Light Far",1012,21,82,11,4.69643961893506,-11,1,89,93,0,0
"1013",72,"SU23_1012",1,"Light Far",1012,22,69,3,1.14036353918845,-3,2,70,52,20,7
"1014",146,"SU23_1012",1,"Light Far",1012,23,167,21,12.3126756117243,21,2,144,158,-12,7
"1015",170,"SU23_1012",1,"Light Far",1012,24,194,24,13.6243963768539,24,1,166,158,12,7
"1016",52,"SU23_1012",1,"Light Far",1012,25,50,2,0.656078327568269,-2,2,50,52,0,0
"1017",133,"SU23_1012",1,"Light Far",1012,26,108,25,14.1735957837257,-25,1,129,158,-25,15
"1018",93,"SU23_1012",1,"Light Far",1012,27,85,8,3.45395985414324,-8,2,91,93,0,0
"1019",251,"SU23_1012",1,"Light Far",1012,28,255,4,6.01895261668585,4,2,249,226,25,15
"1020",226,"SU23_1012",1,"Light Far",1012,29,239,13,6.21027089274552,13,2,224,226,0,0
"1021",76,"SU23_1012",1,"Light Far",1012,30,86,10,4.07940784898453,10,2,74,93,-17,7
"1022",123,"SU23_1012",1,"Light Far",1012,31,106,17,9.14853626758151,-17,2,121,93,30,15
"1023",241,"SU23_1012",1,"Light Far",1012,32,251,10,10.1615516629367,10,2,239,226,15,7
"1024",29,"SU23_1012",1,"Light Far",1012,33,3,26,18.2549433105519,-26,2,27,52,-23,7
"1025",170,"SU23_1012",1,"Light Far",1012,34,136,34,19.9543294976556,-34,2,168,158,12,7
"1026",133,"SU23_1012",1,"Light Far",1012,35,160,27,16.3723492135983,27,2,131,158,-25,15
"1027",216,"SU23_1012",1,"Light Far",1012,36,230,14,9.29542854603406,14,3,216,226,-10,7
"1028",29,"SU23_1012",1,"Light Far",1012,37,14,15,7.10168117952895,-15,3,29,52,-23,7
"1029",76,"SU23_1012",1,"Light Far",1012,38,83,7,2.82718895265796,7,3,76,93,-17,7
"1030",10,"SU23_1012",1,"Light Far",1012,39,0,10,18.514648220112,-10,3,10,52,-42,15
"1031",203,"SU23_1012",1,"Light Far",1012,40,198,5,3.08796041488676,-5,3,203,226,-23,15
"1032",216,"SU23_1012",1,"Light Far",1012,41,212,4,2.64737865926397,-4,4,218,226,-10,7
"1033",93,"SU23_1012",1,"Light Far",1012,42,82,11,4.69643961893506,-11,3,93,93,0,0
"1034",72,"SU23_1012",1,"Light Far",1012,43,54,18,6.47708493451551,-18,3,72,52,20,7
"1035",133,"SU23_1012",1,"Light Far",1012,44,145,12,7.50687739627481,12,3,133,158,-25,15
"1036",72,"SU23_1012",1,"Light Far",1012,45,65,7,2.62404570789914,-7,4,74,52,20,7
"1037",203,"SU23_1012",1,"Light Far",1012,46,201,2,1.24665338653515,-2,4,205,226,-23,15
"1038",251,"SU23_1012",1,"Light Far",1012,47,255,4,6.01895261668585,4,3,251,226,25,15
"1039",93,"SU23_1012",1,"Light Far",1012,48,77,16,6.70634041490906,-16,4,95,93,0,0
"1040",170,"SU23_1012",1,"Light Far",1012,49,152,18,10.3499707077239,-18,3,170,158,12,7
"1041",146,"SU23_1012",1,"Light Far",1012,50,169,23,13.4050827306881,23,3,146,158,-12,7
"1042",123,"SU23_1012",1,"Light Far",1012,51,138,15,9.1416927681978,15,3,123,93,30,15
"1043",10,"SU23_1012",1,"Light Far",1012,52,0,10,18.514648220112,-10,4,12,52,-42,15
"1044",52,"SU23_1012",1,"Light Far",1012,53,47,5,1.61915345601561,-5,3,52,52,0,0
"1045",158,"SU23_1012",1,"Light Far",1012,54,149,9,5.39842433488564,-9,3,158,158,0,0
"1046",185,"SU23_1012",1,"Light Far",1012,55,182,3,1.709035945537,-3,3,185,158,27,15
"1047",108,"SU23_1012",1,"Light Far",1012,56,84,24,10.9121362759177,-24,3,108,93,15,7
"1048",241,"SU23_1012",1,"Light Far",1012,57,254,13,14.2195714710374,13,3,241,226,15,7
"1049",158,"SU23_1012",1,"Light Far",1012,58,171,13,7.37983318077952,13,4,160,158,0,0
"1050",185,"SU23_1012",1,"Light Far",1012,59,195,10,5.84499614405489,10,4,187,158,27,15
"1051",29,"SU23_1012",1,"Light Far",1012,60,7,22,11.2276342375418,-22,4,31,52,-23,7
"1052",226,"SU23_1012",1,"Light Far",1012,61,224,2,1.3272432783232,-2,3,226,226,0,0
"1053",108,"SU23_1012",1,"Light Far",1012,62,85,23,10.5016847247889,-23,4,110,93,15,7
"1054",133,"SU23_1012",1,"Light Far",1012,63,116,17,9.9892919987602,-17,4,135,158,-25,15
"1055",123,"SU23_1012",1,"Light Far",1012,64,127,4,2.36891535064111,4,4,125,93,30,15
"1056",52,"SU23_1012",1,"Light Far",1012,65,47,5,1.61915345601561,-5,4,54,52,0,0
"1057",251,"SU23_1012",1,"Light Far",1012,66,255,4,6.01895261668585,4,4,253,226,25,15
"1058",226,"SU23_1012",1,"Light Far",1012,67,237,11,5.82398534456044,11,4,228,226,0,0
"1059",146,"SU23_1012",1,"Light Far",1012,68,158,12,7.24627944128784,12,4,148,158,-12,7
"1060",170,"SU23_1012",1,"Light Far",1012,69,187,17,9.56738112592399,17,4,172,158,12,7
"1061",241,"SU23_1012",1,"Light Far",1012,70,249,8,7.75718176682421,8,4,243,226,15,7
"1062",76,"SU23_1012",1,"Light Far",1012,71,86,10,4.07940784898453,10,4,78,93,-17,7
"1063",185,"SU23_1012",1,"Light Far",1012,72,175,10,5.64316720491318,-10,5,189,158,27,15
"1064",93,"SU23_1012",1,"Light Far",1012,73,82,11,4.69643961893506,-11,5,97,93,0,0
"1065",108,"SU23_1012",1,"Light Far",1012,74,95,13,6.19924623659601,-13,5,112,93,15,7
"1066",158,"SU23_1012",1,"Light Far",1012,75,144,14,8.48526048260986,-14,5,162,158,0,0
"1067",241,"SU23_1012",1,"Light Far",1012,76,254,13,14.2195714710374,13,5,245,226,15,7
"1068",10,"SU23_1012",1,"Light Far",1012,77,1,9,15.4530978004648,-9,5,14,52,-42,15
"1069",93,"SU23_1012",1,"Light Far",1012,78,83,10,4.28537248002648,-10,6,99,93,0,0
"1070",52,"SU23_1012",1,"Light Far",1012,79,54,2,0.667165467393161,2,5,56,52,0,0
"1071",133,"SU23_1012",1,"Light Far",1012,80,121,12,7.18802766700968,-12,5,137,158,-25,15
"1072",146,"SU23_1012",1,"Light Far",1012,81,130,16,9.95923023620245,-16,5,150,158,-12,7
"1073",72,"SU23_1012",1,"Light Far",1012,82,51,21,7.4667328171181,-21,5,76,52,20,7
"1074",76,"SU23_1012",1,"Light Far",1012,83,61,15,5.61661261607677,-15,5,80,93,-17,7
"1075",29,"SU23_1012",1,"Light Far",1012,84,12,17,8.17017189485313,-17,5,33,52,-23,7
"1076",226,"SU23_1012",1,"Light Far",1012,85,233,7,4.51979256221399,7,5,230,226,0,0
"1077",203,"SU23_1012",1,"Light Far",1012,86,210,7,4.47061523481657,7,5,207,226,-23,15
"1078",185,"SU23_1012",1,"Light Far",1012,87,188,3,1.72678172338487,3,6,191,158,27,15
"1079",52,"SU23_1012",1,"Light Far",1012,88,48,4,1.30084925436631,-4,6,58,52,0,0
"1080",170,"SU23_1012",1,"Light Far",1012,89,174,4,2.23852505352391,4,5,174,158,12,7
"1081",10,"SU23_1014",1,"Light Far",1014,0,14,4,2.20053803069266,4,1,6,52,-42,15
"1082",203,"SU23_1014",1,"Light Far",1014,1,200,3,1.86323950748357,-3,1,199,226,-23,15
"1083",158,"SU23_1014",1,"Light Far",1014,2,156,2,1.17673040661517,-2,1,154,158,0,0
"1084",29,"SU23_1014",1,"Light Far",1014,3,39,10,3.24154970414313,10,1,25,52,-23,7
"1085",10,"SU23_1014",1,"Light Far",1014,4,5,5,5.89844534490897,-5,2,8,52,-42,15
"1086",123,"SU23_1014",1,"Light Far",1014,5,116,7,3.95884848859516,-7,1,119,93,30,15
"1087",203,"SU23_1014",1,"Light Far",1014,6,198,5,3.08796041488676,-5,2,201,226,-23,15
"1088",158,"SU23_1014",1,"Light Far",1014,7,179,21,11.804765675503,21,2,156,158,0,0
"1089",52,"SU23_1014",1,"Light Far",1014,8,47,5,1.61915345601561,-5,1,48,52,0,0
"1090",185,"SU23_1014",1,"Light Far",1014,9,197,12,7.04563627530329,12,1,181,158,27,15
"1091",146,"SU23_1014",1,"Light Far",1014,10,119,27,16.3705420608732,-27,1,142,158,-12,7
"1092",251,"SU23_1014",1,"Light Far",1014,11,253,2,2.8187605440857,2,1,247,226,25,15
"1093",216,"SU23_1014",1,"Light Far",1014,12,232,16,10.5759436501809,16,1,212,226,-10,7
"1094",76,"SU23_1014",1,"Light Far",1014,13,67,9,3.44299887466722,-9,1,72,93,-17,7
"1095",108,"SU23_1014",1,"Light Far",1014,14,87,21,9.67037818159414,-21,1,104,93,15,7
"1096",226,"SU23_1014",1,"Light Far",1014,15,224,2,1.3272432783232,-2,1,222,226,0,0
"1097",241,"SU23_1014",1,"Light Far",1014,16,238,3,2.31755640483789,-3,1,237,226,15,7
"1098",185,"SU23_1014",1,"Light Far",1014,17,186,1,0.573410405893885,1,2,183,158,27,15
"1099",108,"SU23_1014",1,"Light Far",1014,18,92,16,7.52920012882728,-16,2,106,93,15,7
"1100",216,"SU23_1014",1,"Light Far",1014,19,222,6,4.01346482267047,6,2,214,226,-10,7
"1101",72,"SU23_1014",1,"Light Far",1014,20,47,25,8.74285224569182,-25,1,68,52,20,7
"1102",93,"SU23_1014",1,"Light Far",1014,21,53,40,15.3293216782108,-40,1,89,93,0,0
"1103",72,"SU23_1014",1,"Light Far",1014,22,47,25,8.74285224569182,-25,2,70,52,20,7
"1104",146,"SU23_1014",1,"Light Far",1014,23,113,33,19.6311339974564,-33,2,144,158,-12,7
"1105",170,"SU23_1014",1,"Light Far",1014,24,169,1,0.560775153537654,-1,1,166,158,12,7
"1106",52,"SU23_1014",1,"Light Far",1014,25,42,10,3.1707851043467,-10,2,50,52,0,0
"1107",133,"SU23_1014",1,"Light Far",1014,26,82,51,25.3618206815449,-51,1,129,158,-25,15
"1108",93,"SU23_1014",1,"Light Far",1014,27,96,3,1.35084359684968,3,2,91,93,0,0
"1109",251,"SU23_1014",1,"Light Far",1014,28,253,2,2.8187605440857,2,2,249,226,25,15
"1110",226,"SU23_1014",1,"Light Far",1014,29,229,3,1.96531583104478,3,2,224,226,0,0
"1111",76,"SU23_1014",1,"Light Far",1014,30,38,38,12.9560367931214,-38,2,74,93,-17,7
"1112",123,"SU23_1014",1,"Light Far",1014,31,68,55,24.6896846624783,-55,2,121,93,30,15
"1113",241,"SU23_1014",1,"Light Far",1014,32,211,30,15.8512486588116,-30,2,239,226,15,7
"1114",29,"SU23_1014",1,"Light Far",1014,33,19,10,4.48767320868582,-10,2,27,52,-23,7
"1115",170,"SU23_1014",1,"Light Far",1014,34,198,28,15.9966610817718,28,2,168,158,12,7
"1116",133,"SU23_1014",1,"Light Far",1014,35,131,2,1.23410512795671,-2,2,131,158,-25,15
"1117",216,"SU23_1014",1,"Light Far",1014,36,216,0,0,0,3,216,226,-10,7
"1118",29,"SU23_1014",1,"Light Far",1014,37,20,9,3.98312513968071,-9,3,29,52,-23,7
"1119",76,"SU23_1014",1,"Light Far",1014,38,37,39,13.2386596856651,-39,3,76,93,-17,7
"1120",10,"SU23_1014",1,"Light Far",1014,39,2,8,12.7027215674503,-8,3,10,52,-42,15
"1121",203,"SU23_1014",1,"Light Far",1014,40,197,6,3.69540012230865,-6,3,203,226,-23,15
"1122",216,"SU23_1014",1,"Light Far",1014,41,209,7,4.6045550068788,-7,4,218,226,-10,7
"1123",93,"SU23_1014",1,"Light Far",1014,42,89,4,1.75319369418815,-4,3,93,93,0,0
"1124",72,"SU23_1014",1,"Light Far",1014,43,44,28,9.66675861598993,-28,3,72,52,20,7
"1125",133,"SU23_1014",1,"Light Far",1014,44,108,25,14.1735957837257,-25,3,133,158,-25,15
"1126",72,"SU23_1014",1,"Light Far",1014,45,59,13,4.76811575657888,-13,4,74,52,20,7
"1127",203,"SU23_1014",1,"Light Far",1014,46,208,5,3.1758320462504,5,4,205,226,-23,15
"1128",251,"SU23_1014",1,"Light Far",1014,47,253,2,2.8187605440857,2,3,251,226,25,15
"1129",93,"SU23_1014",1,"Light Far",1014,48,79,14,5.91138278445313,-14,4,95,93,0,0
"1130",170,"SU23_1014",1,"Light Far",1014,49,184,14,7.85854804427569,14,3,170,158,12,7
"1131",146,"SU23_1014",1,"Light Far",1014,50,129,17,10.5628884211776,-17,3,146,158,-12,7
"1132",123,"SU23_1014",1,"Light Far",1014,51,104,19,10.1210691990626,-19,3,123,93,30,15
"1133",10,"SU23_1014",1,"Light Far",1014,52,6,4,3.98547281219658,-4,4,12,52,-42,15
"1134",52,"SU23_1014",1,"Light Far",1014,53,36,16,4.97006384129086,-16,3,52,52,0,0
"1135",158,"SU23_1014",1,"Light Far",1014,54,156,2,1.17673040661517,-2,3,158,158,0,0
"1136",185,"SU23_1014",1,"Light Far",1014,55,176,9,5.08410671967428,-9,3,185,158,27,15
"1137",108,"SU23_1014",1,"Light Far",1014,56,103,5,2.47286826607475,-5,3,108,93,15,7
"1138",241,"SU23_1014",1,"Light Far",1014,57,225,16,7.48610970675003,-16,3,241,226,15,7
"1139",158,"SU23_1014",1,"Light Far",1014,58,163,5,2.88717837900862,5,4,160,158,0,0
"1140",185,"SU23_1014",1,"Light Far",1014,59,184,1,0.572253376163868,-1,4,187,158,27,15
"1141",29,"SU23_1014",1,"Light Far",1014,60,9,20,9.77457091099728,-20,4,31,52,-23,7
"1142",226,"SU23_1014",1,"Light Far",1014,61,220,6,4.00254600606027,-6,3,226,226,0,0
"1143",108,"SU23_1014",1,"Light Far",1014,62,73,35,15.2099563280175,-35,4,110,93,15,7
"1144",133,"SU23_1014",1,"Light Far",1014,63,84,49,24.6087346626013,-49,4,135,158,-25,15
"1145",123,"SU23_1014",1,"Light Far",1014,64,97,26,13.3666444060965,-26,4,125,93,30,15
"1146",52,"SU23_1014",1,"Light Far",1014,65,34,18,5.56855055496131,-18,4,54,52,0,0
"1147",251,"SU23_1014",1,"Light Far",1014,66,245,6,6.73269665338533,-6,4,253,226,25,15
"1148",226,"SU23_1014",1,"Light Far",1014,67,229,3,1.96531583104478,3,4,228,226,0,0
"1149",146,"SU23_1014",1,"Light Far",1014,68,121,25,15.2447650461691,-25,4,148,158,-12,7
"1150",170,"SU23_1014",1,"Light Far",1014,69,166,4,2.24908446913173,-4,4,172,158,12,7
"1151",241,"SU23_1014",1,"Light Far",1014,70,218,23,11.6142923641768,-23,4,243,226,15,7
"1152",76,"SU23_1014",1,"Light Far",1014,71,40,36,12.3828346357854,-36,4,78,93,-17,7
"1153",185,"SU23_1014",1,"Light Far",1014,72,186,1,0.573410405893885,1,5,189,158,27,15
"1154",93,"SU23_1014",1,"Light Far",1014,73,74,19,7.87660394242586,-19,5,97,93,0,0
"1155",108,"SU23_1014",1,"Light Far",1014,74,57,51,20.7950923166108,-51,5,112,93,15,7
"1156",158,"SU23_1014",1,"Light Far",1014,75,156,2,1.17673040661517,-2,5,162,158,0,0
"1157",241,"SU23_1014",1,"Light Far",1014,76,189,52,28.2175798494654,-52,5,245,226,15,7
"1158",10,"SU23_1014",1,"Light Far",1014,77,4,6,7.96662021799956,-6,5,14,52,-42,15
"1159",93,"SU23_1014",1,"Light Far",1014,78,75,18,7.48945491190652,-18,6,99,93,0,0
"1160",52,"SU23_1014",1,"Light Far",1014,79,29,23,7.12521815314653,-23,5,56,52,0,0
"1161",133,"SU23_1014",1,"Light Far",1014,80,105,28,15.6438096281767,-28,5,137,158,-25,15
"1162",146,"SU23_1014",1,"Light Far",1014,81,133,13,8.12716379502398,-13,5,150,158,-12,7
"1163",72,"SU23_1014",1,"Light Far",1014,82,37,35,11.7173430673101,-35,5,76,52,20,7
"1164",76,"SU23_1014",1,"Light Far",1014,83,40,36,12.3828346357854,-36,5,80,93,-17,7
"1165",29,"SU23_1014",1,"Light Far",1014,84,5,24,14.4898350693757,-24,5,33,52,-23,7
"1166",226,"SU23_1014",1,"Light Far",1014,85,214,12,8.00750825791257,-12,5,230,226,0,0
"1167",203,"SU23_1014",1,"Light Far",1014,86,204,1,0.627188226005665,1,5,207,226,-23,15
"1168",185,"SU23_1014",1,"Light Far",1014,87,181,4,2.27494977349928,-4,6,191,158,27,15
"1169",52,"SU23_1014",1,"Light Far",1014,88,29,23,7.12521815314653,-23,6,58,52,0,0
"1170",170,"SU23_1014",1,"Light Far",1014,89,172,2,1.11975328165541,2,5,174,158,12,7
"1171",10,"SU23_1015",2,"Dark Far",1015,0,10,0,0,0,1,6,52,-42,15
"1172",203,"SU23_1015",2,"Dark Far",1015,1,212,9,2.86545486299818,9,1,199,226,-23,15
"1173",158,"SU23_1015",2,"Dark Far",1015,2,175,17,7.30593298859374,17,1,154,158,0,0
"1174",29,"SU23_1015",2,"Dark Far",1015,3,24,5,3.25390275589663,-5,1,25,52,-23,7
"1175",10,"SU23_1015",2,"Dark Far",1015,4,8,2,2.03231021091777,-2,2,8,52,-42,15
"1176",123,"SU23_1015",2,"Dark Far",1015,5,141,18,10.4535934724768,18,1,119,93,30,15
"1177",203,"SU23_1015",2,"Dark Far",1015,6,207,4,1.30084925436631,4,2,201,226,-23,15
"1178",158,"SU23_1015",2,"Dark Far",1015,7,170,12,5.25681506203045,12,2,156,158,0,0
"1179",52,"SU23_1015",2,"Dark Far",1015,8,91,39,22.2635425802915,39,1,48,52,0,0
"1180",185,"SU23_1015",2,"Dark Far",1015,9,213,28,9.51461114281185,28,1,181,158,27,15
"1181",146,"SU23_1015",2,"Dark Far",1015,10,188,42,17.879133510698,42,1,142,158,-12,7
"1182",251,"SU23_1015",2,"Dark Far",1015,11,252,1,2.3914883485369,1,1,247,226,25,15
"1183",216,"SU23_1015",2,"Dark Far",1015,12,235,19,7.04244347804218,19,1,212,226,-10,7
"1184",76,"SU23_1015",2,"Dark Far",1015,13,95,19,10.6640941241316,19,1,72,93,-17,7
"1185",108,"SU23_1015",2,"Dark Far",1015,14,106,2,1.23751138123454,-2,1,104,93,15,7
"1186",226,"SU23_1015",2,"Dark Far",1015,15,234,8,3.48843607888273,8,1,222,226,0,0
"1187",241,"SU23_1015",2,"Dark Far",1015,16,240,1,0.54226094229668,-1,1,237,226,15,7
"1188",185,"SU23_1015",2,"Dark Far",1015,17,212,27,9.21535836814173,27,2,183,158,27,15
"1189",108,"SU23_1015",2,"Dark Far",1015,18,109,1,0.622667989239863,1,2,106,93,15,7
"1190",216,"SU23_1015",2,"Dark Far",1015,19,243,27,11.0584287048266,27,2,214,226,-10,7
"1191",72,"SU23_1015",2,"Dark Far",1015,20,86,14,7.84906834508329,14,1,68,52,20,7
"1192",93,"SU23_1015",2,"Dark Far",1015,21,99,6,3.49057094085163,6,1,89,93,0,0
"1193",72,"SU23_1015",2,"Dark Far",1015,22,63,9,5.20455060369229,-9,2,70,52,20,7
"1194",146,"SU23_1015",2,"Dark Far",1015,23,189,43,18.2318215422512,43,2,144,158,-12,7
"1195",170,"SU23_1015",2,"Dark Far",1015,24,207,37,13.560797465743,37,1,166,158,12,7
"1196",52,"SU23_1015",2,"Dark Far",1015,25,72,20,11.8589462128208,20,2,50,52,0,0
"1197",133,"SU23_1015",2,"Dark Far",1015,26,115,18,10.9680384328087,-18,1,129,158,-25,15
"1198",93,"SU23_1015",2,"Dark Far",1015,27,101,8,4.67834308115506,8,2,91,93,0,0
"1199",251,"SU23_1015",2,"Dark Far",1015,28,254,3,8.09094417490582,3,2,249,226,25,15
"1200",226,"SU23_1015",2,"Dark Far",1015,29,250,24,14.4898350693757,24,2,224,226,0,0
"1201",76,"SU23_1015",2,"Dark Far",1015,30,102,26,14.6868789735823,26,2,74,93,-17,7
"1202",123,"SU23_1015",2,"Dark Far",1015,31,126,3,1.83764674653087,3,2,121,93,30,15
"1203",241,"SU23_1015",2,"Dark Far",1015,32,240,1,0.54226094229668,-1,2,239,226,15,7
"1204",29,"SU23_1015",2,"Dark Far",1015,33,7,22,11.6162263360557,-22,2,27,52,-23,7
